emg_0,emg_1,emg_2,emg_3,emg_4,acc_x,acc_y,acc_z,gyro_x,gyro_y,gyro_z,dt
149,0.017578125,-0.0269775390625,0.872314453125,-0.5190839694656488,-3.8091603053435112,0.1297709923664122,0.9697244167327881
150,0.017578125,-0.0213623046875,0.866455078125,-0.7175572519083969,-3.7099236641221376,0.22900763358778625,0.002507925033569336
151,0.021728515625,-0.0318603515625,0.864501953125,-0.7862595419847328,-3.9160305343511452,0.06870229007633588,0.003098011016845703
149,0.01806640625,-0.0240478515625,0.857177734375,-0.8473282442748091,-3.9083969465648853,-0.16793893129770993,0.0024530887603759766
151,0.01904296875,-0.0211181640625,0.862060546875,-0.9083969465648855,-3.5343511450381677,0.26717557251908397,0.0024771690368652344
151,0.020263671875,-0.0277099609375,0.85888671875,-0.7404580152671756,-3.6564885496183206,0.20610687022900764,0.0025115013122558594
151,0.017578125,-0.0284423828125,0.866455078125,-0.8625954198473282,-3.7938931297709924,0.16793893129770993,0.002538919448852539
152,0.015380859375,-0.0216064453125,0.863037109375,-0.6870229007633588,-3.6412213740458017,-0.022900763358778626,0.002486705780029297
152,0.01416015625,-0.0262451171875,0.87646484375,-0.6259541984732825,-3.763358778625954,0.1984732824427481,0.0024297237396240234
152,0.017333984375,-0.0238037109375,0.864013671875,-0.6335877862595419,-3.732824427480916,0.1450381679389313,0.002421855926513672
152,0.018798828125,-0.0223388671875,0.861083984375,-0.5725190839694656,-3.8244274809160306,-0.015267175572519083,0.0024213790893554688
152,0.011962890625,-0.0267333984375,0.861572265625,-0.6183206106870229,-3.786259541984733,0.2595419847328244,0.002584218978881836
153,0.018798828125,-0.0255126953125,0.8671875,-0.8473282442748091,-3.801526717557252,0.007633587786259542,0.0025298595428466797
153,0.017822265625,-0.0235595703125,0.86767578125,-0.9541984732824428,-3.648854961832061,0.3816793893129771,0.002530813217163086
153,0.016845703125,-0.0240478515625,0.862548828125,-0.9923664122137404,-3.7938931297709924,0.061068702290076333,0.0025289058685302734
152,0.021240234375,-0.0301513671875,0.86572265625,-0.9083969465648855,-3.6717557251908395,0.11450381679389313,0.0024483203887939453
154,0.01171875,-0.0274658203125,0.85302734375,-0.8549618320610687,-3.8702290076335877,0.06870229007633588,0.0024518966674804688
154,0.015625,-0.0316162109375,0.859130859375,-0.732824427480916,-3.4198473282442747,0.1984732824427481,0.002454519271850586
154,0.01806640625,-0.0262451171875,0.855224609375,-0.6793893129770993,-3.9236641221374047,-0.030534351145038167,0.0025565624237060547
156,0.017822265625,-0.0230712890625,0.864990234375,-0.916030534351145,-3.786259541984733,-0.0916030534351145,0.0024902820587158203
154,0.015380859375,-0.0240478515625,0.86962890625,-0.9236641221374046,-3.8244274809160306,0.04580152671755725,0.0024962425231933594
154,0.0166015625,-0.0294189453125,0.860595703125,-0.9923664122137404,-3.763358778625954,0.19083969465648856,0.0025115013122558594
153,0.01123046875,-0.0333251953125,0.865966796875,-0.8244274809160306,-3.732824427480916,0.16030534351145037,0.002454996109008789
154,0.021728515625,-0.0303955078125,0.871337890625,-0.8091603053435115,-4.091603053435114,0.16030534351145037,0.0024344921112060547
154,0.021240234375,-0.0235595703125,0.864501953125,-0.7404580152671756,-3.7022900763358777,0.08396946564885496,0.002506732940673828
154,0.01611328125,-0.0252685546875,0.854736328125,-0.7557251908396947,-3.9618320610687023,0.2900763358778626,0.0024976730346679688
154,0.02197265625,-0.0289306640625,0.860107421875,-0.732824427480916,-3.7251908396946565,0.10687022900763359,0.002482175827026367
155,0.022216796875,-0.0255126953125,0.8544921875,-0.5725190839694656,-3.900763358778626,0.183206106870229,0.0024709701538085938
153,0.012939453125,-0.0345458984375,0.861328125,-0.5190839694656488,-3.8931297709923665,0.1297709923664122,0.0023648738861083984
154,0.01611328125,-0.0274658203125,0.865234375,-0.6412213740458015,-3.885496183206107,0.20610687022900764,0.002343893051147461
154,0.02197265625,-0.0250244140625,0.857177734375,-0.5038167938931297,-3.8091603053435112,0.05343511450381679,0.002457141876220703
154,0.02197265625,-0.0279541015625,0.863525390625,-0.8015267175572519,-4.0534351145038165,0.04580152671755725,0.0024459362030029297
153,0.022216796875,-0.0264892578125,0.85009765625,-0.48854961832061067,-3.946564885496183,0.16793893129770993,0.002478361129760742
154,0.01513671875,-0.0216064453125,0.85888671875,-0.7480916030534351,-3.885496183206107,0.1297709923664122,0.0024034976959228516
154,0.0126953125,-0.0184326171875,0.860595703125,-0.9312977099236641,-3.854961832061069,-0.030534351145038167,0.002482175827026367
152,0.015869140625,-0.0233154296875,0.859375,-0.9847328244274809,-3.6793893129770994,0.12213740458015267,0.0023925304412841797
154,0.015380859375,-0.0250244140625,0.8603515625,-0.7557251908396947,-3.83206106870229,0.0,0.0025794506072998047
154,0.0166015625,-0.0269775390625,0.87060546875,-0.8931297709923665,-3.9083969465648853,0.09923664122137404,0.0024018287658691406
154,0.02197265625,-0.0235595703125,0.861083984375,-0.5877862595419847,-3.732824427480916,0.183206106870229,0.0024313926696777344
154,0.01806640625,-0.0277099609375,0.866943359375,-0.7557251908396947,-3.7022900763358777,0.19083969465648856,0.0024344921112060547
153,0.0166015625,-0.0250244140625,0.86083984375,-0.5954198473282443,-3.6946564885496183,0.022900763358778626,0.0024852752685546875
153,0.015625,-0.0267333984375,0.8623046875,-0.6641221374045801,-3.83206106870229,0.022900763358778626,0.0023956298828125
153,0.021484375,-0.0257568359375,0.86572265625,-0.7251908396946565,-3.717557251908397,0.06870229007633588,0.002427816390991211
153,0.0185546875,-0.0267333984375,0.860107421875,-0.7480916030534351,-3.801526717557252,0.13740458015267176,0.0023941993713378906
154,0.020263671875,-0.0223388671875,0.872802734375,-0.7938931297709924,-3.6946564885496183,0.17557251908396945,0.0024192333221435547
153,0.012451171875,-0.0252685546875,0.872314453125,-0.4122137404580153,-3.9618320610687023,0.11450381679389313,0.0024383068084716797
152,0.021240234375,-0.0235595703125,0.860595703125,-0.9312977099236641,-3.946564885496183,0.17557251908396945,0.0024874210357666016
152,0.019287109375,-0.0218505859375,0.85986328125,-0.7938931297709924,-3.6259541984732824,0.03816793893129771,0.002408266067504883
153,0.01123046875,-0.0216064453125,0.859130859375,-0.6412213740458015,-3.9236641221374047,0.07633587786259542,0.0024852752685546875
152,0.014892578125,-0.0262451171875,0.85693359375,-0.8549618320610687,-3.7557251908396947,0.07633587786259542,0.0023565292358398438
152,0.01904296875,-0.0264892578125,0.85986328125,-0.6870229007633588,-3.877862595419847,0.03816793893129771,0.002444028854370117
153,0.017333984375,-0.0157470703125,0.86181640625,-0.8778625954198473,-3.7786259541984735,0.37404580152671757,0.0025315284729003906
153,0.016357421875,-0.0235595703125,0.859130859375,-0.9847328244274809,-3.801526717557252,0.07633587786259542,0.002511739730834961
152,0.01416015625,-0.0235595703125,0.866455078125,-0.8549618320610687,-3.633587786259542,0.2366412213740458,0.0025942325592041016
152,0.0146484375,-0.0272216796875,0.86181640625,-0.916030534351145,-3.6564885496183206,-0.06870229007633588,0.002457857131958008
152,0.022705078125,-0.0269775390625,0.8701171875,-0.9618320610687023,-3.931297709923664,0.1450381679389313,0.0023674964904785156
151,0.017333984375,-0.0289306640625,0.859375,-0.9541984732824428,-3.648854961832061,0.12213740458015267,0.0024688243865966797
152,0.017822265625,-0.0279541015625,0.870361328125,-0.7251908396946565,-3.7480916030534353,0.05343511450381679,0.00244903564453125
152,0.0166015625,-0.0299072265625,0.85986328125,-0.8854961832061069,-3.7099236641221376,0.2595419847328244,0.0023200511932373047
151,0.0205078125,-0.0289306640625,0.855712890625,-0.6030534351145038,-3.9083969465648853,-0.04580152671755725,0.0023152828216552734
160,0.01953125,-0.0250244140625,0.856201171875,-0.6259541984732825,-3.900763358778626,0.0,0.002315521240234375
151,0.02294921875,-0.0228271484375,0.8583984375,-0.6870229007633588,-3.8931297709923665,0.26717557251908397,0.002315044403076172
150,0.0224609375,-0.0245361328125,0.859375,-0.7633587786259542,-3.7557251908396947,-0.022900763358778626,0.002315521240234375
150,0.016357421875,-0.0179443359375,0.85791015625,-0.8702290076335878,-3.7938931297709924,0.25190839694656486,0.0024878978729248047
150,0.018798828125,-0.0218505859375,0.8701171875,-0.8015267175572519,-3.8473282442748094,0.2366412213740458,0.0023419857025146484
150,0.020751953125,-0.0262451171875,0.869873046875,-0.7786259541984732,-3.8091603053435112,0.20610687022900764,0.002317190170288086
150,0.02392578125,-0.0269775390625,0.862060546875,-0.7786259541984732,-3.717557251908397,0.015267175572519083,0.0023186206817626953
150,0.017822265625,-0.0306396484375,0.865966796875,-0.7022900763358778,-3.8244274809160306,0.3053435114503817,0.0023174285888671875
149,0.0205078125,-0.0213623046875,0.870849609375,-0.44274809160305345,-3.801526717557252,0.007633587786259542,0.002315044403076172
149,0.0166015625,-0.0247802734375,0.85302734375,-0.6564885496183206,-3.877862595419847,0.13740458015267176,0.0023157596588134766
149,0.018310546875,-0.0277099609375,0.85693359375,-0.6030534351145038,-3.801526717557252,-0.05343511450381679,0.002315521240234375
148,0.01708984375,-0.0296630859375,0.864990234375,-0.7099236641221374,-3.6793893129770994,0.13740458015267176,0.0023164749145507812
148,0.0146484375,-0.0250244140625,0.861083984375,-0.9236641221374046,-3.8931297709923665,0.22137404580152673,0.002317190170288086
137,0.01806640625,-0.0230712890625,0.8583984375,-0.5114503816793893,-3.6412213740458017,0.04580152671755725,0.0023136138916015625
148,0.01220703125,-0.0257568359375,0.856201171875,-1.0229007633587786,-3.7938931297709924,0.10687022900763359,0.002315521240234375
148,0.013916015625,-0.0223388671875,0.86669921875,-0.7557251908396947,-3.7099236641221376,0.04580152671755725,0.002314329147338867
148,0.018310546875,-0.0347900390625,0.86669921875,-0.7480916030534351,-3.7938931297709924,0.24427480916030533,0.0023157596588134766
148,0.01025390625,-0.0269775390625,0.864990234375,-0.7862595419847328,-3.8625954198473282,0.33587786259541985,0.0023148059844970703
148,0.023193359375,-0.0274658203125,0.865478515625,-0.7938931297709924,-3.877862595419847,0.29770992366412213,0.002315521240234375
147,0.0166015625,-0.0213623046875,0.871826171875,-0.7786259541984732,-3.6030534351145036,0.0,0.0023164749145507812
147,0.012451171875,-0.0240478515625,0.8662109375,-0.7251908396946565,-3.9923664122137406,0.13740458015267176,0.0023131370544433594
146,0.01953125,-0.0257568359375,0.86279296875,-0.5877862595419847,-3.7557251908396947,0.11450381679389313,0.002315998077392578
147,0.02099609375,-0.0267333984375,0.85986328125,-0.6259541984732825,-3.7786259541984735,0.12213740458015267,0.002314329147338867
147,0.01904296875,-0.0250244140625,0.8623046875,-0.7022900763358778,-3.854961832061069,0.26717557251908397,0.002315044403076172
147,0.02294921875,-0.0250244140625,0.860107421875,-0.8244274809160306,-4.030534351145038,0.030534351145038167,0.002313852310180664
146,0.01708984375,-0.0281982421875,0.858642578125,-0.7633587786259542,-3.7251908396946565,0.0,0.002315044403076172
146,0.0205078125,-0.0242919921875,0.867919921875,-0.7251908396946565,-3.83206106870229,-0.022900763358778626,0.002313852310180664
146,0.02099609375,-0.0269775390625,0.85986328125,-0.7022900763358778,-3.816793893129771,0.2824427480916031,0.0023136138916015625
146,0.020263671875,-0.0267333984375,0.871337890625,-0.8854961832061069,-4.0458015267175576,0.21374045801526717,0.0023148059844970703
146,0.024169921875,-0.0269775390625,0.86962890625,-0.8320610687022901,-3.6717557251908395,0.022900763358778626,0.0023145675659179688
146,0.017578125,-0.0277099609375,0.8662109375,-0.7938931297709924,-3.8473282442748094,0.09923664122137404,0.0023148059844970703
145,0.013671875,-0.0267333984375,0.866455078125,-0.7786259541984732,-4.030534351145038,0.022900763358778626,0.0023152828216552734
145,0.014892578125,-0.0301513671875,0.862060546875,-0.5954198473282443,-3.648854961832061,0.3435114503816794,0.002313375473022461
145,0.0146484375,-0.0247802734375,0.859130859375,-0.7099236641221374,-3.687022900763359,0.06870229007633588,0.002315044403076172
145,0.017578125,-0.0257568359375,0.863525390625,-0.7099236641221374,-3.9083969465648853,0.10687022900763359,0.0023126602172851562
145,0.017333984375,-0.0240478515625,0.867431640625,-0.9465648854961832,-3.6412213740458017,0.19083969465648856,0.0023145675659179688
146,0.01904296875,-0.0247802734375,0.87109375,-0.7175572519083969,-3.7938931297709924,0.2900763358778626,0.0024831295013427734
145,0.014404296875,-0.0321044921875,0.86572265625,-0.7099236641221374,-3.8396946564885495,0.03816793893129771,0.0024700164794921875
145,0.010986328125,-0.0211181640625,0.861328125,-0.732824427480916,-3.763358778625954,0.09923664122137404,0.0023267269134521484
145,0.017578125,-0.0303955078125,0.8544921875,-0.6717557251908397,-3.7480916030534353,0.04580152671755725,0.0023174285888671875
145,0.015869140625,-0.0233154296875,0.85546875,-0.8625954198473282,-3.6564885496183206,0.03816793893129771,0.0023145675659179688
145,0.018798828125,-0.0333251953125,0.87353515625,-0.816793893129771,-3.8625954198473282,0.16793893129770993,0.0023102760314941406
145,0.0185546875,-0.0260009765625,0.864990234375,-0.7709923664122137,-3.9160305343511452,0.007633587786259542,0.0023162364959716797
145,0.021240234375,-0.0299072265625,0.858154296875,-0.7862595419847328,-3.7786259541984735,-0.015267175572519083,0.002315998077392578
145,0.015869140625,-0.0269775390625,0.87841796875,-0.6641221374045801,-3.572519083969466,0.22137404580152673,0.0023491382598876953
145,0.013916015625,-0.0257568359375,0.849609375,-0.8396946564885496,-3.801526717557252,0.21374045801526717,0.002327442169189453
144,0.015625,-0.0277099609375,0.858154296875,-0.8778625954198473,-3.8244274809160306,0.0,0.0023152828216552734
136,0.01708984375,-0.0279541015625,0.870849609375,-0.9007633587786259,-3.8473282442748094,0.007633587786259542,0.0023157596588134766
144,0.017333984375,-0.0194091796875,0.846923828125,-0.8854961832061069,-4.022900763358779,0.03816793893129771,0.002315044403076172
144,0.01220703125,-0.0225830078125,0.86083984375,-0.7938931297709924,-3.7099236641221376,0.09923664122137404,0.0023381710052490234
144,0.01611328125,-0.0262451171875,0.868408203125,-0.8244274809160306,-3.763358778625954,0.05343511450381679,0.002316713333129883
144,0.01513671875,-0.0274658203125,0.85595703125,-1.0,-3.7404580152671754,0.0,0.0023131370544433594
143,0.0185546875,-0.0301513671875,0.87158203125,-0.7709923664122137,-3.7404580152671754,0.15267175572519084,0.0023131370544433594
143,0.0185546875,-0.0284423828125,0.867431640625,-0.7557251908396947,-3.7786259541984735,-0.0916030534351145,0.0023148059844970703
143,0.015625,-0.0255126953125,0.849609375,-0.5801526717557252,-3.8473282442748094,0.05343511450381679,0.0023152828216552734
143,0.019287109375,-0.0284423828125,0.8759765625,-0.6030534351145038,-3.7938931297709924,-0.015267175572519083,0.0023145675659179688
142,0.016357421875,-0.0289306640625,0.863037109375,-0.6030534351145038,-3.648854961832061,0.06870229007633588,0.002314329147338867
143,0.020263671875,-0.0220947265625,0.857177734375,-0.6259541984732825,-3.8931297709923665,0.0,0.0023148059844970703
143,0.017333984375,-0.0296630859375,0.87060546875,-0.8625954198473282,-3.9770992366412212,0.015267175572519083,0.0023124217987060547
143,0.017333984375,-0.0247802734375,0.857666015625,-0.6259541984732825,-3.8931297709923665,0.3053435114503817,0.002315521240234375
143,0.016357421875,-0.0284423828125,0.863037109375,-0.6641221374045801,-3.854961832061069,0.030534351145038167,0.0023140907287597656
143,0.0146484375,-0.0225830078125,0.8720703125,-0.7709923664122137,-3.687022900763359,0.030534351145038167,0.0023145675659179688
143,0.017822265625,-0.0257568359375,0.84375,-0.7786259541984732,-3.9083969465648853,0.0,0.002314329147338867
142,0.0146484375,-0.0264892578125,0.861083984375,-0.6793893129770993,-3.931297709923664,0.1984732824427481,0.0023169517517089844
143,0.02001953125,-0.0211181640625,0.87841796875,-0.8931297709923665,-3.7709923664122136,0.0,0.0023148059844970703
143,0.020263671875,-0.0223388671875,0.85498046875,-0.9007633587786259,-3.8625954198473282,0.13740458015267176,0.0023131370544433594
142,0.020751953125,-0.0211181640625,0.876708984375,-0.5877862595419847,-3.7099236641221376,0.2900763358778626,0.0023136138916015625
142,0.013671875,-0.0311279296875,0.8779296875,-0.6641221374045801,-3.648854961832061,0.13740458015267176,0.0024826526641845703
143,0.010498046875,-0.0255126953125,0.845947265625,-0.7099236641221374,-3.984732824427481,0.17557251908396945,0.0023276805877685547
142,0.021240234375,-0.0233154296875,0.864501953125,-0.8778625954198473,-3.5572519083969465,0.3053435114503817,0.002315044403076172
142,0.016845703125,-0.0260009765625,0.870361328125,-1.0229007633587786,-3.8244274809160306,0.061068702290076333,0.0023152828216552734
142,0.016845703125,-0.0294189453125,0.8671875,-0.7557251908396947,-3.984732824427481,0.183206106870229,0.0023169517517089844
142,0.015380859375,-0.0267333984375,0.8779296875,-0.5343511450381679,-3.50381679389313,0.07633587786259542,0.002314329147338867
141,0.017822265625,-0.0257568359375,0.871337890625,-0.6412213740458015,-3.8702290076335877,-0.05343511450381679,0.0023145675659179688
142,0.021728515625,-0.0247802734375,0.864013671875,-0.816793893129771,-3.7099236641221376,0.3053435114503817,0.002315521240234375
142,0.013671875,-0.0252685546875,0.85595703125,-0.7480916030534351,-3.618320610687023,0.015267175572519083,0.0023131370544433594
142,0.020263671875,-0.0267333984375,0.859375,-0.5954198473282443,-3.8244274809160306,0.15267175572519084,0.0023152828216552734
142,0.019287109375,-0.0323486328125,0.868408203125,-0.6793893129770993,-3.7709923664122136,0.0916030534351145,0.0023140907287597656
141,0.01953125,-0.0235595703125,0.85302734375,-0.9083969465648855,-3.8396946564885495,0.11450381679389313,0.0023145675659179688
143,0.022705078125,-0.0203857421875,0.861083984375,-0.816793893129771,-3.572519083969466,0.022900763358778626,0.002939462661743164
142,0.01513671875,-0.0284423828125,0.86962890625,-0.9770992366412213,-3.877862595419847,0.04580152671755725,0.002480745315551758
143,0.020751953125,-0.0264892578125,0.861083984375,-0.7022900763358778,-3.763358778625954,0.22137404580152673,0.002324342727661133
142,0.0185546875,-0.0296630859375,0.862548828125,-0.6412213740458015,-3.801526717557252,0.1297709923664122,0.002317190170288086
143,0.016845703125,-0.0269775390625,0.85888671875,-0.8625954198473282,-3.7557251908396947,0.12213740458015267,0.0023126602172851562
142,0.015869140625,-0.0238037109375,0.859130859375,-0.7175572519083969,-3.801526717557252,0.11450381679389313,0.0023157596588134766
142,0.017333984375,-0.0228271484375,0.868896484375,-0.7862595419847328,-3.885496183206107,0.24427480916030533,0.0023169517517089844
142,0.023193359375,-0.0252685546875,0.857421875,-0.6641221374045801,-3.6106870229007635,0.022900763358778626,0.002317190170288086
142,0.01953125,-0.0203857421875,0.8525390625,-0.7557251908396947,-3.9236641221374047,0.06870229007633588,0.002315521240234375
142,0.017333984375,-0.0262451171875,0.862060546875,-0.8244274809160306,-3.801526717557252,0.16030534351145037,0.0023157596588134766
142,0.01318359375,-0.0252685546875,0.857177734375,-0.7786259541984732,-3.8702290076335877,0.0,0.0023164749145507812
146,0.01318359375,-0.0247802734375,0.858642578125,-0.9312977099236641,-4.091603053435114,0.061068702290076333,0.0023145675659179688
142,0.0185546875,-0.0252685546875,0.859619140625,-0.7557251908396947,-3.946564885496183,0.16793893129770993,0.0023169517517089844
142,0.01318359375,-0.0269775390625,0.859130859375,-0.6564885496183206,-3.6106870229007635,0.11450381679389313,0.0023148059844970703
141,0.0283203125,-0.0299072265625,0.867919921875,-0.7786259541984732,-3.854961832061069,0.19083969465648856,0.0023164749145507812
142,0.022705078125,-0.0242919921875,0.86767578125,-0.6946564885496184,-3.7938931297709924,0.19083969465648856,0.002315521240234375
142,0.0205078125,-0.0264892578125,0.868896484375,-0.7709923664122137,-3.9236641221374047,-0.1450381679389313,0.0023152828216552734
142,0.01416015625,-0.0250244140625,0.865234375,-0.6641221374045801,-3.9236641221374047,0.022900763358778626,0.0023174285888671875
142,0.01513671875,-0.0216064453125,0.860107421875,-0.6717557251908397,-3.7938931297709924,0.45038167938931295,0.002313852310180664
142,0.019287109375,-0.0216064453125,0.859619140625,-0.6335877862595419,-3.885496183206107,-0.061068702290076333,0.0023298263549804688
141,0.0205078125,-0.0274658203125,0.849609375,-0.7709923664122137,-3.801526717557252,0.10687022900763359,0.0023152828216552734
142,0.025390625,-0.0274658203125,0.857177734375,-0.7557251908396947,-3.8931297709923665,0.2900763358778626,0.002314329147338867
142,0.013916015625,-0.0299072265625,0.860107421875,-0.9847328244274809,-3.4427480916030535,0.03816793893129771,0.002314329147338867
141,0.017333984375,-0.0257568359375,0.863525390625,-0.816793893129771,-3.946564885496183,-0.061068702290076333,0.0023152828216552734
139,0.021240234375,-0.0245361328125,0.856201171875,-0.7709923664122137,-3.786259541984733,0.0,0.0023152828216552734
141,0.017822265625,-0.0277099609375,0.8720703125,-0.5419847328244275,-3.969465648854962,0.22137404580152673,0.002312183380126953
142,0.022216796875,-0.0296630859375,0.86083984375,-0.8320610687022901,-3.717557251908397,0.21374045801526717,0.002314329147338867
142,0.011474609375,-0.0279541015625,0.856201171875,-0.816793893129771,-3.7022900763358777,0.12213740458015267,0.002313852310180664
143,0.0185546875,-0.0257568359375,0.8662109375,-0.6870229007633588,-3.7557251908396947,0.24427480916030533,0.0023267269134521484
142,0.017822265625,-0.0242919921875,0.8583984375,-0.6946564885496184,-3.786259541984733,0.22900763358778625,0.0023262500762939453
142,0.020751953125,-0.0264892578125,0.867431640625,-0.7709923664122137,-3.9770992366412212,0.1297709923664122,0.002313375473022461
141,0.02197265625,-0.0284423828125,0.864990234375,-0.7480916030534351,-3.9618320610687023,0.061068702290076333,0.0023152828216552734
141,0.0166015625,-0.0216064453125,0.8642578125,-0.7786259541984732,-3.7709923664122136,0.04580152671755725,0.0023136138916015625
141,0.021728515625,-0.0257568359375,0.86865234375,-0.7557251908396947,-3.8702290076335877,-0.09923664122137404,0.002314329147338867
142,0.021728515625,-0.0274658203125,0.853271484375,-0.6793893129770993,-3.6259541984732824,0.06870229007633588,0.002313852310180664
142,0.016357421875,-0.0228271484375,0.866455078125,-0.9694656488549618,-3.5801526717557253,-0.07633587786259542,0.002314329147338867
142,0.0205078125,-0.0233154296875,0.859375,-0.9541984732824428,-3.7709923664122136,0.07633587786259542,0.0023148059844970703
143,0.01708984375,-0.0235595703125,0.866943359375,-0.9007633587786259,-3.816793893129771,0.16793893129770993,0.002312183380126953
141,0.018798828125,-0.0250244140625,0.864501953125,-0.7480916030534351,-3.5877862595419847,0.15267175572519084,0.0023140907287597656
141,0.015625,-0.0181884765625,0.864501953125,-0.8702290076335878,-4.038167938931298,0.2595419847328244,0.0023136138916015625
141,0.014892578125,-0.0318603515625,0.861572265625,-0.7938931297709924,-3.7480916030534353,0.007633587786259542,0.002315044403076172
140,0.01708984375,-0.0318603515625,0.87255859375,-0.9618320610687023,-3.648854961832061,0.03816793893129771,0.0023136138916015625
141,0.0166015625,-0.0206298828125,0.85498046875,-0.7175572519083969,-3.877862595419847,0.17557251908396945,0.0023148059844970703
142,0.015625,-0.0277099609375,0.8583984375,-0.7938931297709924,-3.6106870229007635,0.1450381679389313,0.0025031566619873047
142,0.01611328125,-0.0281982421875,0.865478515625,-0.4122137404580153,-3.801526717557252,0.19083969465648856,0.002485036849975586
140,0.020751953125,-0.0262451171875,0.869384765625,-0.9007633587786259,-3.786259541984733,0.21374045801526717,0.0023348331451416016
142,0.01953125,-0.0235595703125,0.866943359375,-0.6946564885496184,-3.7480916030534353,0.022900763358778626,0.0023186206817626953
142,0.018798828125,-0.0208740234375,0.868896484375,-0.7251908396946565,-3.8931297709923665,0.061068702290076333,0.0023169517517089844
142,0.017578125,-0.0252685546875,0.86474609375,-0.5725190839694656,-3.732824427480916,-0.015267175572519083,0.002316713333129883
142,0.014404296875,-0.0238037109375,0.87744140625,-0.8320610687022901,-3.8625954198473282,0.07633587786259542,0.002315044403076172
142,0.019287109375,-0.0294189453125,0.861083984375,-0.6106870229007634,-3.854961832061069,0.10687022900763359,0.002320528030395508
143,0.02099609375,-0.0294189453125,0.8583984375,-0.7786259541984732,-3.732824427480916,0.33587786259541985,0.002467632293701172
142,0.021728515625,-0.0269775390625,0.878173828125,-0.8244274809160306,-3.801526717557252,0.13740458015267176,0.0023431777954101562
142,0.02197265625,-0.0306396484375,0.85791015625,-0.8625954198473282,-3.8625954198473282,0.26717557251908397,0.002322673797607422
143,0.016357421875,-0.0267333984375,0.861083984375,-0.8396946564885496,-3.687022900763359,0.21374045801526717,0.0023195743560791016
142,0.016845703125,-0.0250244140625,0.861083984375,-0.8931297709923665,-3.9083969465648853,-0.007633587786259542,0.002319812774658203
142,0.018310546875,-0.0208740234375,0.871337890625,-0.8625954198473282,-3.7786259541984735,0.04580152671755725,0.0023183822631835938
143,0.014404296875,-0.0301513671875,0.869140625,-0.6717557251908397,-3.931297709923664,0.07633587786259542,0.002318859100341797
142,0.017333984375,-0.0250244140625,0.873779296875,-0.8473282442748091,-3.595419847328244,0.06870229007633588,0.0023183822631835938
143,0.0205078125,-0.0311279296875,0.871337890625,-0.6946564885496184,-3.7938931297709924,0.07633587786259542,0.002317667007446289
142,0.015869140625,-0.0250244140625,0.85205078125,-0.7480916030534351,-3.7938931297709924,0.16793893129770993,0.0023183822631835938
142,0.016845703125,-0.0262451171875,0.879150390625,-0.8015267175572519,-3.648854961832061,0.13740458015267176,0.0023174285888671875
135,0.020263671875,-0.0252685546875,0.870849609375,-0.7862595419847328,-3.6412213740458017,0.0916030534351145,0.0023186206817626953
142,0.017822265625,-0.0306396484375,0.854248046875,-0.6793893129770993,-3.8473282442748094,0.05343511450381679,0.0023183822631835938
142,0.021484375,-0.0238037109375,0.87255859375,-0.7022900763358778,-3.931297709923664,0.20610687022900764,0.002315044403076172
142,0.016845703125,-0.0303955078125,0.864501953125,-0.5572519083969466,-3.786259541984733,0.05343511450381679,0.0023157596588134766
142,0.009521484375,-0.0260009765625,0.857177734375,-0.8091603053435115,-4.0,0.22137404580152673,0.0023190975189208984
142,0.021240234375,-0.0291748046875,0.876220703125,-0.648854961832061,-3.633587786259542,0.04580152671755725,0.002318143844604492
141,0.008056640625,-0.0274658203125,0.86474609375,-0.5419847328244275,-3.7480916030534353,0.1984732824427481,0.002318143844604492
142,0.023681640625,-0.0260009765625,0.859619140625,-0.7862595419847328,-3.83206106870229,0.29770992366412213,0.0023186206817626953
142,0.016357421875,-0.0257568359375,0.872314453125,-0.549618320610687,-4.0,0.08396946564885496,0.0023183822631835938
142,0.01904296875,-0.0216064453125,0.8583984375,-1.1145038167938932,-3.7480916030534353,0.022900763358778626,0.002315998077392578
142,0.014404296875,-0.0235595703125,0.854736328125,-0.8931297709923665,-3.8244274809160306,0.022900763358778626,0.0023186206817626953
142,0.01953125,-0.0242919921875,0.871337890625,-0.7557251908396947,-3.564885496183206,0.29770992366412213,0.002318143844604492
142,0.016357421875,-0.0311279296875,0.856689453125,-0.8625954198473282,-3.8091603053435112,-0.13740458015267176,0.0023179054260253906
144,0.0126953125,-0.0264892578125,0.873291015625,-0.8778625954198473,-3.7709923664122136,0.030534351145038167,0.0023508071899414062
142,0.016357421875,-0.0242919921875,0.861572265625,-0.7404580152671756,-3.687022900763359,0.09923664122137404,0.002322673797607422
142,0.02001953125,-0.0267333984375,0.863525390625,-0.6564885496183206,-3.6793893129770994,0.20610687022900764,0.002321958541870117
143,0.021484375,-0.0247802734375,0.8642578125,-0.5954198473282443,-3.9083969465648853,0.07633587786259542,0.002316713333129883
143,0.0234375,-0.0264892578125,0.857177734375,-0.7709923664122137,-3.687022900763359,0.19083969465648856,0.0023174285888671875
143,0.009765625,-0.0223388671875,0.856689453125,-0.7862595419847328,-3.946564885496183,0.2824427480916031,0.0023174285888671875
143,0.0244140625,-0.0203857421875,0.863525390625,-0.816793893129771,-3.801526717557252,0.007633587786259542,0.0023179054260253906
143,0.01318359375,-0.0264892578125,0.851806640625,-0.7404580152671756,-3.931297709923664,0.0,0.0023179054260253906
143,0.02685546875,-0.0281982421875,0.867431640625,-0.5801526717557252,-3.885496183206107,0.10687022900763359,0.0023183822631835938
142,0.0107421875,-0.0255126953125,0.8671875,-0.7709923664122137,-3.6946564885496183,0.12213740458015267,0.0023190975189208984
143,0.0205078125,-0.0198974609375,0.866455078125,-0.7709923664122137,-3.786259541984733,0.16030534351145037,0.0023169517517089844
143,0.0146484375,-0.0262451171875,0.859375,-0.8625954198473282,-4.015267175572519,0.1450381679389313,0.0024542808532714844
143,0.01318359375,-0.0291748046875,0.85400390625,-0.7557251908396947,-3.732824427480916,0.22137404580152673,0.0025436878204345703
140,0.0146484375,-0.0338134765625,0.86376953125,-0.5877862595419847,-3.7709923664122136,0.05343511450381679,0.0023458003997802734
144,0.01513671875,-0.0296630859375,0.871826171875,-0.7480916030534351,-3.7404580152671754,0.1450381679389313,0.0023179054260253906
144,0.01953125,-0.0233154296875,0.8623046875,-0.732824427480916,-3.6412213740458017,0.0916030534351145,0.0023148059844970703
144,0.016845703125,-0.0267333984375,0.86376953125,-1.015267175572519,-3.816793893129771,0.0,0.002315521240234375
143,0.019775390625,-0.0264892578125,0.8623046875,-0.7022900763358778,-3.6564885496183206,0.2900763358778626,0.0023136138916015625
144,0.018310546875,-0.0252685546875,0.855224609375,-0.8396946564885496,-3.8091603053435112,0.21374045801526717,0.0023186206817626953
144,0.017333984375,-0.0279541015625,0.871337890625,-0.8778625954198473,-3.801526717557252,0.022900763358778626,0.0023190975189208984
144,0.01611328125,-0.0240478515625,0.854248046875,-0.7404580152671756,-4.00763358778626,-0.007633587786259542,0.0023186206817626953
144,0.01904296875,-0.0318603515625,0.869384765625,-0.7557251908396947,-3.816793893129771,0.29770992366412213,0.0023190975189208984
144,0.0166015625,-0.0279541015625,0.869384765625,-0.8091603053435115,-3.8396946564885495,0.2366412213740458,0.002318143844604492
145,0.0185546875,-0.0330810546875,0.860595703125,-0.7404580152671756,-3.854961832061069,0.05343511450381679,0.002318143844604492
145,0.016845703125,-0.0233154296875,0.868408203125,-0.6106870229007634,-3.7099236641221376,0.1984732824427481,0.0023174285888671875
145,0.019287109375,-0.0267333984375,0.871337890625,-0.6793893129770993,-3.6564885496183206,0.2366412213740458,0.002318143844604492
145,0.019775390625,-0.0255126953125,0.8564453125,-0.4198473282442748,-3.900763358778626,0.03816793893129771,0.0023193359375
146,0.0166015625,-0.0230712890625,0.865478515625,-0.7022900763358778,-3.6946564885496183,0.1297709923664122,0.0023164749145507812
146,0.015869140625,-0.0245361328125,0.866943359375,-0.732824427480916,-3.687022900763359,0.3816793893129771,0.002318143844604492
146,0.02197265625,-0.0289306640625,0.85400390625,-0.732824427480916,-3.648854961832061,0.007633587786259542,0.002316713333129883
146,0.017578125,-0.0194091796875,0.865478515625,-0.7175572519083969,-3.7480916030534353,0.26717557251908397,0.002315521240234375
146,0.01708984375,-0.0299072265625,0.872802734375,-0.9312977099236641,-3.7557251908396947,0.10687022900763359,0.0023119449615478516
147,0.02197265625,-0.0203857421875,0.85693359375,-0.6564885496183206,-3.9083969465648853,0.1450381679389313,0.0023202896118164062
147,0.015380859375,-0.0213623046875,0.861328125,-0.8931297709923665,-4.137404580152672,0.022900763358778626,0.0023183822631835938
146,0.01416015625,-0.0206298828125,0.87109375,-0.6641221374045801,-3.7099236641221376,-0.015267175572519083,0.0023164749145507812
146,0.01904296875,-0.0274658203125,0.857421875,-0.7022900763358778,-3.7786259541984735,0.21374045801526717,0.0023179054260253906
146,0.013427734375,-0.0245361328125,0.859130859375,-0.6946564885496184,-3.931297709923664,0.04580152671755725,0.0023162364959716797
146,0.019775390625,-0.0264892578125,0.86376953125,-0.6564885496183206,-3.877862595419847,0.03816793893129771,0.0023179054260253906
146,0.016845703125,-0.0213623046875,0.8662109375,-0.8091603053435115,-3.7938931297709924,0.0,0.002332448959350586
147,0.017822265625,-0.0252685546875,0.872802734375,-0.9007633587786259,-3.7099236641221376,0.07633587786259542,0.0023162364959716797
147,0.019287109375,-0.0233154296875,0.858642578125,-0.6412213740458015,-3.7404580152671754,-0.06870229007633588,0.002513885498046875
147,0.0126953125,-0.0343017578125,0.87255859375,-0.8320610687022901,-3.854961832061069,0.16793893129770993,0.0023255348205566406
147,0.016357421875,-0.0284423828125,0.864013671875,-0.5114503816793893,-3.954198473282443,-0.022900763358778626,0.0023195743560791016
146,0.017822265625,-0.0301513671875,0.86767578125,-0.7709923664122137,-3.8625954198473282,0.2366412213740458,0.0023183822631835938
147,0.0224609375,-0.0274658203125,0.86279296875,-0.8091603053435115,-3.7786259541984735,0.030534351145038167,0.002318859100341797
147,0.017822265625,-0.0208740234375,0.854248046875,-0.7709923664122137,-3.6030534351145036,-0.007633587786259542,0.0023193359375
147,0.0205078125,-0.0252685546875,0.873779296875,-0.8091603053435115,-3.954198473282443,0.13740458015267176,0.002318143844604492
147,0.026123046875,-0.0272216796875,0.867919921875,-0.8549618320610687,-3.595419847328244,0.04580152671755725,0.002321481704711914
147,0.0205078125,-0.0269775390625,0.864990234375,-0.7404580152671756,-4.015267175572519,0.015267175572519083,0.0023195743560791016
147,0.012451171875,-0.0262451171875,0.86181640625,-0.7251908396946565,-3.877862595419847,0.1297709923664122,0.0023374557495117188
147,0.016845703125,-0.0208740234375,0.859130859375,-0.8320610687022901,-4.0534351145038165,-0.015267175572519083,0.0023186206817626953
148,0.02099609375,-0.0264892578125,0.861572265625,-0.6030534351145038,-3.7251908396946565,-0.03816793893129771,0.002318143844604492
147,0.018798828125,-0.0242919921875,0.86669921875,-0.9694656488549618,-3.877862595419847,0.11450381679389313,0.0023186206817626953
147,0.023193359375,-0.0240478515625,0.859619140625,-0.8244274809160306,-3.7251908396946565,0.10687022900763359,0.0023195743560791016
148,0.02294921875,-0.0284423828125,0.862060546875,-0.9389312977099237,-3.5572519083969465,-0.061068702290076333,0.0032820701599121094
148,0.021484375,-0.0274658203125,0.85595703125,-1.1068702290076335,-3.8931297709923665,0.15267175572519084,0.002471446990966797
149,0.018310546875,-0.0220947265625,0.86279296875,-0.7022900763358778,-3.969465648854962,0.11450381679389313,0.0023298263549804688
149,0.015380859375,-0.0218505859375,0.860107421875,-0.7480916030534351,-3.763358778625954,0.007633587786259542,0.0023186206817626953
148,0.016845703125,-0.0311279296875,0.873046875,-0.7480916030534351,-3.854961832061069,0.19083969465648856,0.002315521240234375
149,0.016845703125,-0.0284423828125,0.86767578125,-0.9694656488549618,-3.7786259541984735,0.17557251908396945,0.002315998077392578
144,0.021484375,-0.0269775390625,0.865234375,-0.8854961832061069,-3.7404580152671754,-0.09923664122137404,0.002315998077392578
148,0.01513671875,-0.0262451171875,0.860595703125,-0.7175572519083969,-3.900763358778626,0.24427480916030533,0.0023195743560791016
148,0.01953125,-0.0191650390625,0.8681640625,-0.6870229007633588,-3.717557251908397,0.16030534351145037,0.0023193359375
148,0.02001953125,-0.0186767578125,0.85986328125,-0.7404580152671756,-3.83206106870229,0.19083969465648856,0.0023179054260253906
149,0.0234375,-0.0267333984375,0.8525390625,-0.6259541984732825,-3.8931297709923665,0.015267175572519083,0.0023179054260253906
148,0.0166015625,-0.0267333984375,0.865966796875,-0.5801526717557252,-3.8091603053435112,0.3435114503816794,0.002318143844604492
148,0.021240234375,-0.0272216796875,0.85205078125,-0.7251908396946565,-3.8473282442748094,0.19083969465648856,0.0023174285888671875
148,0.0166015625,-0.0318603515625,0.8544921875,-0.5648854961832062,-3.633587786259542,0.17557251908396945,0.0023186206817626953
147,0.016845703125,-0.0252685546875,0.86083984375,-0.8702290076335878,-3.717557251908397,0.06870229007633588,0.002317190170288086
148,0.015869140625,-0.0272216796875,0.865478515625,-0.8320610687022901,-3.6946564885496183,0.08396946564885496,0.0023174285888671875
148,0.0205078125,-0.0233154296875,0.8671875,-0.6717557251908397,-3.687022900763359,0.0916030534351145,0.0023179054260253906
148,0.016845703125,-0.0274658203125,0.85595703125,-0.6564885496183206,-3.8473282442748094,0.04580152671755725,0.0023174285888671875
148,0.0205078125,-0.0299072265625,0.858154296875,-0.6946564885496184,-3.801526717557252,0.0916030534351145,0.0023183822631835938
147,0.015625,-0.0274658203125,0.861572265625,-0.8320610687022901,-3.7404580152671754,0.061068702290076333,0.002317190170288086
148,0.016357421875,-0.0223388671875,0.86572265625,-0.8396946564885496,-3.763358778625954,0.2748091603053435,0.0023183822631835938
148,0.0205078125,-0.0238037109375,0.8662109375,-0.6183206106870229,-3.801526717557252,-0.022900763358778626,0.0023186206817626953
147,0.007568359375,-0.0257568359375,0.87744140625,-0.7251908396946565,-3.66412213740458,-0.07633587786259542,0.0023183822631835938
147,0.01953125,-0.0264892578125,0.866455078125,-0.7557251908396947,-3.7099236641221376,0.366412213740458,0.0023183822631835938
148,0.01708984375,-0.0242919921875,0.86083984375,-0.8625954198473282,-3.8625954198473282,0.25190839694656486,0.0023179054260253906
147,0.01025390625,-0.0264892578125,0.86279296875,-0.5267175572519084,-3.6717557251908395,-0.15267175572519084,0.002318143844604492
148,0.02197265625,-0.0272216796875,0.862548828125,-0.648854961832061,-3.732824427480916,0.19083969465648856,0.002317190170288086
147,0.02001953125,-0.0284423828125,0.861572265625,-0.7709923664122137,-4.038167938931298,0.03816793893129771,0.002317667007446289
147,0.013427734375,-0.0269775390625,0.86083984375,-0.7099236641221374,-3.801526717557252,0.15267175572519084,0.002317190170288086
148,0.01416015625,-0.0233154296875,0.865478515625,-0.816793893129771,-3.7404580152671754,0.0,0.0023186206817626953
148,0.015380859375,-0.0299072265625,0.8544921875,-0.6030534351145038,-3.7099236641221376,0.022900763358778626,0.0023183822631835938
149,0.01806640625,-0.0260009765625,0.862060546875,-0.8854961832061069,-3.687022900763359,0.04580152671755725,0.002318143844604492
147,0.015380859375,-0.0233154296875,0.875,-0.6946564885496184,-3.6259541984732824,-0.022900763358778626,0.002317667007446289
148,0.021240234375,-0.0238037109375,0.864501953125,-0.7022900763358778,-3.83206106870229,0.10687022900763359,0.002316713333129883
149,0.01513671875,-0.0284423828125,0.86376953125,-0.7557251908396947,-3.9083969465648853,0.11450381679389313,0.002318859100341797
149,0.019287109375,-0.0242919921875,0.86279296875,-0.816793893129771,-3.854961832061069,0.17557251908396945,0.0023174285888671875
149,0.016845703125,-0.0301513671875,0.861083984375,-0.6717557251908397,-3.732824427480916,0.1450381679389313,0.0023186206817626953
150,0.021728515625,-0.0196533203125,0.860107421875,-0.8244274809160306,-3.8396946564885495,0.3053435114503817,0.002318859100341797
150,0.02001953125,-0.0252685546875,0.86083984375,-0.7480916030534351,-3.572519083969466,0.12213740458015267,0.002318859100341797
150,0.023681640625,-0.0286865234375,0.8623046875,-0.6793893129770993,-3.8244274809160306,0.366412213740458,0.0023183822631835938
150,0.019287109375,-0.0240478515625,0.86328125,-0.816793893129771,-3.5572519083969465,0.022900763358778626,0.002317190170288086
150,0.017333984375,-0.0296630859375,0.864990234375,-0.7022900763358778,-3.8091603053435112,0.11450381679389313,0.002317667007446289
150,0.01513671875,-0.0247802734375,0.857177734375,-0.5648854961832062,-3.786259541984733,0.25190839694656486,0.002319812774658203
152,0.01904296875,-0.0247802734375,0.865478515625,-0.6946564885496184,-3.816793893129771,0.12213740458015267,0.0030698776245117188
152,0.015869140625,-0.0311279296875,0.864501953125,-0.5572519083969466,-4.0,0.1984732824427481,0.0026934146881103516
152,0.020263671875,-0.0220947265625,0.864501953125,-0.8473282442748091,-3.7709923664122136,-0.030534351145038167,0.00232696533203125
151,0.018310546875,-0.0264892578125,0.86669921875,-0.7175572519083969,-3.8091603053435112,0.1450381679389313,0.0023162364959716797
151,0.013916015625,-0.0247802734375,0.867431640625,-0.7862595419847328,-3.9236641221374047,0.17557251908396945,0.0023179054260253906
151,0.01806640625,-0.0316162109375,0.86279296875,-0.7786259541984732,-3.8091603053435112,0.16793893129770993,0.0023124217987060547
152,0.016845703125,-0.0291748046875,0.857421875,-0.9694656488549618,-3.6946564885496183,0.12213740458015267,0.0024700164794921875
152,0.01953125,-0.0228271484375,0.865966796875,-0.7404580152671756,-3.854961832061069,0.12213740458015267,0.002324342727661133
152,0.013916015625,-0.0220947265625,0.8623046875,-0.7862595419847328,-3.816793893129771,0.19083969465648856,0.0023148059844970703
152,0.01513671875,-0.0245361328125,0.862060546875,-0.7404580152671756,-3.8396946564885495,0.3435114503816794,0.002317190170288086
152,0.013671875,-0.0291748046875,0.8623046875,-0.7709923664122137,-3.633587786259542,0.007633587786259542,0.0023186206817626953
152,0.01806640625,-0.0245361328125,0.86181640625,-0.6335877862595419,-4.030534351145038,0.13740458015267176,0.0023193359375
152,0.019775390625,-0.0286865234375,0.865234375,-0.816793893129771,-3.854961832061069,0.183206106870229,0.002350330352783203
152,0.013427734375,-0.0267333984375,0.8671875,-0.7786259541984732,-3.7404580152671754,-0.04580152671755725,0.0023186206817626953
153,0.02001953125,-0.0228271484375,0.87353515625,-0.5801526717557252,-3.7251908396946565,0.007633587786259542,0.0023193359375
153,0.015869140625,-0.0303955078125,0.86767578125,-0.7633587786259542,-3.984732824427481,0.20610687022900764,0.0023169517517089844
153,0.017578125,-0.0238037109375,0.8720703125,-0.8702290076335878,-3.7251908396946565,0.15267175572519084,0.0023183822631835938
153,0.022705078125,-0.0306396484375,0.86767578125,-0.7557251908396947,-3.801526717557252,0.08396946564885496,0.0023174285888671875
154,0.01171875,-0.0238037109375,0.860595703125,-0.648854961832061,-3.8473282442748094,0.21374045801526717,0.002317190170288086
152,0.01953125,-0.0235595703125,0.859619140625,-0.7862595419847328,-3.687022900763359,0.09923664122137404,0.0023169517517089844
153,0.018798828125,-0.0291748046875,0.8671875,-0.648854961832061,-3.7938931297709924,0.2900763358778626,0.002317667007446289
153,0.016845703125,-0.0272216796875,0.860595703125,-0.7557251908396947,-3.786259541984733,0.11450381679389313,0.0023183822631835938
152,0.01025390625,-0.0262451171875,0.868408203125,-0.7786259541984732,-3.969465648854962,0.4198473282442748,0.0023195743560791016
153,0.018798828125,-0.0262451171875,0.878173828125,-0.7938931297709924,-3.8625954198473282,0.2748091603053435,0.0023179054260253906
152,0.012451171875,-0.0274658203125,0.857421875,-0.8244274809160306,-3.854961832061069,0.16030534351145037,0.002317190170288086
153,0.015869140625,-0.0281982421875,0.86279296875,-0.7480916030534351,-3.900763358778626,0.061068702290076333,0.002317190170288086
153,0.016845703125,-0.0330810546875,0.854736328125,-0.8854961832061069,-3.8396946564885495,0.366412213740458,0.002337932586669922
153,0.01953125,-0.0240478515625,0.85986328125,-0.6564885496183206,-3.8396946564885495,0.022900763358778626,0.0023179054260253906
152,0.015380859375,-0.0269775390625,0.856201171875,-1.1450381679389312,-3.786259541984733,0.3053435114503817,0.0023190975189208984
153,0.020751953125,-0.0245361328125,0.8642578125,-0.7557251908396947,-3.9236641221374047,0.007633587786259542,0.002317667007446289
152,0.0224609375,-0.0301513671875,0.864501953125,-0.6641221374045801,-3.9618320610687023,0.10687022900763359,0.002318143844604492
154,0.01904296875,-0.0284423828125,0.860595703125,-0.6641221374045801,-3.633587786259542,0.007633587786259542,0.002317667007446289
153,0.024658203125,-0.0277099609375,0.859619140625,-0.7633587786259542,-3.816793893129771,0.15267175572519084,0.0023174285888671875
153,0.01953125,-0.0262451171875,0.865966796875,-0.4580152671755725,-4.0,0.22900763358778625,0.002317667007446289
153,0.01513671875,-0.0201416015625,0.864501953125,-0.6335877862595419,-3.7251908396946565,0.11450381679389313,0.0023162364959716797
153,0.016357421875,-0.0284423828125,0.865966796875,-0.648854961832061,-3.946564885496183,-0.03816793893129771,0.0023179054260253906
153,0.0185546875,-0.0233154296875,0.8662109375,-0.6106870229007634,-3.8244274809160306,0.0,0.002317667007446289
154,0.01806640625,-0.0235595703125,0.861328125,-0.7099236641221374,-3.7786259541984735,-0.007633587786259542,0.0023157596588134766
154,0.017333984375,-0.0252685546875,0.8701171875,-0.6412213740458015,-3.8931297709923665,0.0,0.0023179054260253906
154,0.01513671875,-0.0250244140625,0.864013671875,-0.7404580152671756,-3.6717557251908395,0.007633587786259542,0.0023164749145507812
148,0.0205078125,-0.0279541015625,0.8583984375,-0.7404580152671756,-3.801526717557252,0.21374045801526717,0.002318859100341797
154,0.020751953125,-0.0245361328125,0.860107421875,-0.8015267175572519,-3.7480916030534353,-0.061068702290076333,0.002316713333129883
154,0.017333984375,-0.0240478515625,0.862060546875,-0.7175572519083969,-3.5877862595419847,0.1984732824427481,0.0023183822631835938
155,0.01953125,-0.0250244140625,0.85888671875,-1.099236641221374,-3.7404580152671754,0.0,0.0026831626892089844
156,0.0205078125,-0.0208740234375,0.859375,-0.8320610687022901,-3.7251908396946565,0.3282442748091603,0.002477407455444336
155,0.017578125,-0.0252685546875,0.86181640625,-0.9618320610687023,-3.9770992366412212,0.1297709923664122,0.002323150634765625
154,0.01513671875,-0.0267333984375,0.863037109375,-0.8473282442748091,-3.7709923664122136,0.09923664122137404,0.002315521240234375
154,0.011474609375,-0.0252685546875,0.86865234375,-0.8931297709923665,-3.732824427480916,0.06870229007633588,0.0023169517517089844
155,0.015869140625,-0.0242919921875,0.8564453125,-0.916030534351145,-3.6946564885496183,0.19083969465648856,0.0023136138916015625
155,0.015380859375,-0.0235595703125,0.863037109375,-0.7938931297709924,-3.801526717557252,-0.015267175572519083,0.002315998077392578
154,0.01611328125,-0.0340576171875,0.863525390625,-0.7099236641221374,-3.7938931297709924,0.16793893129770993,0.0023322105407714844
154,0.01953125,-0.0240478515625,0.860107421875,-0.8931297709923665,-3.9083969465648853,0.24427480916030533,0.002315521240234375
154,0.0205078125,-0.0277099609375,0.857666015625,-0.48854961832061067,-3.7480916030534353,0.10687022900763359,0.002318859100341797
155,0.017578125,-0.0247802734375,0.850830078125,-0.8931297709923665,-3.9083969465648853,-0.03816793893129771,0.0023183822631835938
155,0.017578125,-0.0277099609375,0.86669921875,-0.4580152671755725,-3.7557251908396947,0.007633587786259542,0.0023190975189208984
155,0.015625,-0.0228271484375,0.866943359375,-0.6717557251908397,-3.9618320610687023,0.11450381679389313,0.002317190170288086
154,0.0166015625,-0.0247802734375,0.86767578125,-0.6564885496183206,-3.7404580152671754,0.16793893129770993,0.0023186206817626953
152,0.018310546875,-0.0216064453125,0.863525390625,-0.7862595419847328,-3.7480916030534353,0.26717557251908397,0.002317667007446289
155,0.01953125,-0.0291748046875,0.857421875,-0.8473282442748091,-3.6717557251908395,0.06870229007633588,0.0023169517517089844
155,0.015869140625,-0.0233154296875,0.860107421875,-0.7480916030534351,-3.7480916030534353,0.2595419847328244,0.0023174285888671875
155,0.01416015625,-0.0257568359375,0.8681640625,-0.9083969465648855,-3.7480916030534353,0.07633587786259542,0.002318143844604492
155,0.01171875,-0.0262451171875,0.86572265625,-0.6946564885496184,-3.5801526717557253,0.20610687022900764,0.002318143844604492
155,0.020751953125,-0.0223388671875,0.86181640625,-0.6870229007633588,-3.7938931297709924,-0.04580152671755725,0.0023186206817626953
155,0.019287109375,-0.0316162109375,0.860595703125,-0.7480916030534351,-3.717557251908397,0.061068702290076333,0.002317667007446289
155,0.01953125,-0.0252685546875,0.862060546875,-0.6259541984732825,-3.954198473282443,0.2748091603053435,0.0023174285888671875
156,0.021484375,-0.0238037109375,0.873046875,-0.7709923664122137,-3.4885496183206106,0.09923664122137404,0.0023164749145507812
155,0.0224609375,-0.0235595703125,0.86865234375,-0.6717557251908397,-3.9618320610687023,0.15267175572519084,0.0023169517517089844
155,0.025146484375,-0.0245361328125,0.859130859375,-0.8473282442748091,-3.801526717557252,0.061068702290076333,0.0023174285888671875
155,0.016357421875,-0.0245361328125,0.858642578125,-0.7480916030534351,-3.8091603053435112,0.13740458015267176,0.002316713333129883
155,0.015625,-0.0238037109375,0.85498046875,-0.5419847328244275,-3.9083969465648853,0.1450381679389313,0.0023174285888671875
155,0.010498046875,-0.0294189453125,0.8681640625,-0.8473282442748091,-3.7099236641221376,0.16793893129770993,0.0024771690368652344
156,0.015625,-0.0257568359375,0.863525390625,-0.6412213740458015,-3.7480916030534353,0.19083969465648856,0.0023407936096191406
157,0.01953125,-0.0250244140625,0.8603515625,-0.6564885496183206,-3.6030534351145036,0.007633587786259542,0.0023207664489746094
156,0.015869140625,-0.0301513671875,0.86279296875,-0.816793893129771,-3.786259541984733,0.183206106870229,0.002318143844604492
156,0.02001953125,-0.0238037109375,0.872314453125,-0.6335877862595419,-3.9160305343511452,0.05343511450381679,0.002317667007446289
156,0.019775390625,-0.0247802734375,0.86474609375,-0.648854961832061,-3.618320610687023,0.09923664122137404,0.0023174285888671875
156,0.0185546875,-0.0247802734375,0.8662109375,-0.6030534351145038,-3.877862595419847,0.007633587786259542,0.0023179054260253906
156,0.018798828125,-0.0235595703125,0.875732421875,-0.6641221374045801,-3.885496183206107,-0.04580152671755725,0.002316713333129883
157,0.01318359375,-0.0255126953125,0.87109375,-0.6717557251908397,-3.618320610687023,0.07633587786259542,0.0023179054260253906
156,0.019775390625,-0.0247802734375,0.8642578125,-0.816793893129771,-3.7557251908396947,0.07633587786259542,0.002317190170288086
156,0.02001953125,-0.0225830078125,0.863525390625,-0.7786259541984732,-3.9160305343511452,0.17557251908396945,0.0023169517517089844
156,0.013671875,-0.0277099609375,0.8623046875,-0.7175572519083969,-3.931297709923664,0.17557251908396945,0.0023183822631835938
156,0.016357421875,-0.0294189453125,0.8662109375,-0.8549618320610687,-3.984732824427481,0.12213740458015267,0.0023162364959716797
156,0.013427734375,-0.0269775390625,0.865966796875,-0.7404580152671756,-3.877862595419847,0.061068702290076333,0.002317190170288086
156,0.01806640625,-0.0257568359375,0.86474609375,-0.7022900763358778,-3.8396946564885495,-0.030534351145038167,0.0023162364959716797
156,0.016357421875,-0.0299072265625,0.87158203125,-0.8244274809160306,-3.7251908396946565,0.21374045801526717,0.0023179054260253906
156,0.01611328125,-0.0242919921875,0.870849609375,-0.6641221374045801,-3.8091603053435112,0.007633587786259542,0.002477407455444336
154,0.01416015625,-0.0250244140625,0.866455078125,-0.8396946564885496,-3.6793893129770994,0.2595419847328244,0.002455472946166992
156,0.021728515625,-0.0247802734375,0.864990234375,-0.5877862595419847,-3.83206106870229,0.13740458015267176,0.002325296401977539
156,0.01953125,-0.0218505859375,0.866455078125,-0.6412213740458015,-3.8625954198473282,0.21374045801526717,0.0023298263549804688
156,0.014404296875,-0.0272216796875,0.86474609375,-0.7099236641221374,-3.763358778625954,0.04580152671755725,0.0023140907287597656
156,0.01953125,-0.0257568359375,0.869384765625,-0.7633587786259542,-3.7786259541984735,0.11450381679389313,0.0023124217987060547
156,0.019287109375,-0.0303955078125,0.87255859375,-0.5725190839694656,-3.7938931297709924,0.08396946564885496,0.0023140907287597656
156,0.022216796875,-0.0267333984375,0.85693359375,-0.732824427480916,-4.221374045801527,0.31297709923664124,0.002313852310180664
156,0.02099609375,-0.0272216796875,0.86181640625,-0.8778625954198473,-3.6946564885496183,0.1297709923664122,0.002312898635864258
157,0.0185546875,-0.0245361328125,0.864013671875,-0.7099236641221374,-3.5877862595419847,0.1297709923664122,0.002313375473022461
156,0.016357421875,-0.0233154296875,0.87158203125,-0.8931297709923665,-3.9160305343511452,0.16793893129770993,0.0023126602172851562
155,0.017822265625,-0.0233154296875,0.859375,-1.0,-3.83206106870229,0.03816793893129771,0.002318859100341797
155,0.015625,-0.0257568359375,0.866455078125,-0.732824427480916,-3.7938931297709924,0.10687022900763359,0.0023179054260253906
156,0.01806640625,-0.0338134765625,0.867431640625,-0.7404580152671756,-3.9083969465648853,-0.04580152671755725,0.0023169517517089844
156,0.013916015625,-0.0294189453125,0.86572265625,-0.732824427480916,-3.7709923664122136,0.32061068702290074,0.0023183822631835938
156,0.0166015625,-0.0240478515625,0.866943359375,-0.7557251908396947,-3.946564885496183,0.06870229007633588,0.0023164749145507812
155,0.0185546875,-0.0262451171875,0.862548828125,-0.9236641221374046,-3.450381679389313,0.07633587786259542,0.0023179054260253906
155,0.015869140625,-0.0262451171875,0.86181640625,-0.6259541984732825,-3.6793893129770994,0.21374045801526717,0.0023169517517089844
155,0.0185546875,-0.0245361328125,0.878662109375,-0.6183206106870229,-3.549618320610687,-0.015267175572519083,0.0023174285888671875
155,0.023681640625,-0.0277099609375,0.86474609375,-0.6335877862595419,-3.7022900763358777,0.15267175572519084,0.0023183822631835938
155,0.018310546875,-0.0218505859375,0.869140625,-0.5038167938931297,-3.6793893129770994,0.1984732824427481,0.0023169517517089844
154,0.01416015625,-0.0186767578125,0.86376953125,-0.5267175572519084,-4.015267175572519,0.25190839694656486,0.0023164749145507812
149,0.0244140625,-0.0255126953125,0.874267578125,-0.6412213740458015,-4.0,0.1984732824427481,0.002320528030395508
155,0.016845703125,-0.0250244140625,0.849365234375,-0.5190839694656488,-3.7480916030534353,0.22900763358778625,0.002315044403076172
154,0.02294921875,-0.0313720703125,0.860595703125,-0.7480916030534351,-3.931297709923664,-0.015267175572519083,0.002332448959350586
155,0.016845703125,-0.0208740234375,0.860595703125,-0.7862595419847328,-3.8473282442748094,0.15267175572519084,0.002318143844604492
154,0.0166015625,-0.0233154296875,0.860107421875,-0.8931297709923665,-3.786259541984733,0.31297709923664124,0.002316713333129883
155,0.0146484375,-0.0235595703125,0.864013671875,-0.7709923664122137,-3.7404580152671754,0.03816793893129771,0.002315044403076172
155,0.01611328125,-0.0255126953125,0.862060546875,-0.6870229007633588,-3.687022900763359,0.19083969465648856,0.002383708953857422
155,0.022705078125,-0.0238037109375,0.860595703125,-0.7404580152671756,-3.6946564885496183,0.0916030534351145,0.0023195743560791016
154,0.014892578125,-0.0272216796875,0.859130859375,-0.8854961832061069,-3.763358778625954,0.1297709923664122,0.002319812774658203
164,0.01806640625,-0.0281982421875,0.86279296875,-0.8015267175572519,-3.8473282442748094,0.11450381679389313,0.0023186206817626953
153,0.018798828125,-0.0267333984375,0.86474609375,-0.7938931297709924,-3.7099236641221376,-0.06870229007633588,0.002317190170288086
154,0.01904296875,-0.0291748046875,0.859619140625,-0.7709923664122137,-3.6946564885496183,0.007633587786259542,0.0023179054260253906
154,0.0166015625,-0.0269775390625,0.86279296875,-0.9083969465648855,-3.6106870229007635,0.061068702290076333,0.002317190170288086
154,0.016845703125,-0.0281982421875,0.85498046875,-0.7480916030534351,-3.7022900763358777,-0.16030534351145037,0.0023169517517089844
154,0.013671875,-0.0242919921875,0.854736328125,-0.9541984732824428,-3.7480916030534353,0.1984732824427481,0.002349853515625
154,0.0185546875,-0.0252685546875,0.860595703125,-0.7786259541984732,-3.969465648854962,0.03816793893129771,0.0023446083068847656
154,0.021484375,-0.0208740234375,0.855224609375,-0.7557251908396947,-3.801526717557252,0.29770992366412213,0.0023193359375
154,0.021728515625,-0.0333251953125,0.8720703125,-0.7709923664122137,-3.7022900763358777,0.04580152671755725,0.0023157596588134766
154,0.015869140625,-0.0255126953125,0.8681640625,-0.8549618320610687,-4.0,0.12213740458015267,0.002318859100341797
154,0.010498046875,-0.0240478515625,0.87158203125,-0.7938931297709924,-3.7557251908396947,0.24427480916030533,0.002315044403076172
154,0.0185546875,-0.0257568359375,0.857177734375,-0.6717557251908397,-3.8473282442748094,0.16793893129770993,0.0023174285888671875
154,0.025390625,-0.0247802734375,0.8642578125,-0.6793893129770993,-3.7557251908396947,0.007633587786259542,0.002504587173461914
154,0.020751953125,-0.0267333984375,0.867431640625,-0.6946564885496184,-3.732824427480916,0.19083969465648856,0.002402782440185547
154,0.01904296875,-0.0252685546875,0.865234375,-0.549618320610687,-3.8702290076335877,0.16030534351145037,0.0023467540740966797
154,0.01513671875,-0.0247802734375,0.860595703125,-0.8244274809160306,-3.7099236641221376,-0.007633587786259542,0.0023131370544433594
154,0.018798828125,-0.0316162109375,0.857666015625,-0.7022900763358778,-3.9770992366412212,0.183206106870229,0.0026252269744873047
154,0.02197265625,-0.0269775390625,0.86767578125,-0.9083969465648855,-3.66412213740458,0.03816793893129771,0.0023331642150878906
154,0.02001953125,-0.0274658203125,0.869140625,-0.8778625954198473,-3.877862595419847,0.15267175572519084,0.0023145675659179688
155,0.02099609375,-0.0252685546875,0.863037109375,-0.7633587786259542,-3.954198473282443,-0.061068702290076333,0.0023186206817626953
154,0.02001953125,-0.0279541015625,0.872314453125,-0.6183206106870229,-3.954198473282443,-0.13740458015267176,0.002318143844604492
150,0.01806640625,-0.0286865234375,0.858642578125,-0.7786259541984732,-3.763358778625954,0.11450381679389313,0.0023183822631835938
154,0.01708984375,-0.0296630859375,0.864501953125,-0.7786259541984732,-3.6946564885496183,0.015267175572519083,0.002318143844604492
154,0.0166015625,-0.0235595703125,0.865234375,-0.6106870229007634,-3.8702290076335877,0.007633587786259542,0.0023162364959716797
154,0.01318359375,-0.0228271484375,0.867919921875,-0.5954198473282443,-3.8931297709923665,0.26717557251908397,0.002318143844604492
154,0.022216796875,-0.0272216796875,0.87255859375,-0.8549618320610687,-3.7404580152671754,0.1450381679389313,0.0023183822631835938
154,0.02099609375,-0.0245361328125,0.860595703125,-0.6946564885496184,-3.801526717557252,0.03816793893129771,0.0023174285888671875
154,0.0146484375,-0.0203857421875,0.860107421875,-0.6412213740458015,-3.786259541984733,0.07633587786259542,0.0023162364959716797
154,0.016845703125,-0.0260009765625,0.861083984375,-0.8473282442748091,-3.8244274809160306,0.15267175572519084,0.0023169517517089844
154,0.009033203125,-0.0220947265625,0.85986328125,-0.7557251908396947,-3.7786259541984735,0.25190839694656486,0.002317667007446289
154,0.023193359375,-0.0294189453125,0.86181640625,-0.7709923664122137,-3.732824427480916,0.22900763358778625,0.002316713333129883
154,0.018310546875,-0.0274658203125,0.864501953125,-0.816793893129771,-3.7251908396946565,0.06870229007633588,0.002317190170288086
154,0.016845703125,-0.0179443359375,0.858642578125,-0.6717557251908397,-3.801526717557252,0.16030534351145037,0.0023169517517089844
153,0.0146484375,-0.0260009765625,0.85302734375,-0.6641221374045801,-3.7480916030534353,-0.022900763358778626,0.002317190170288086
147,0.016357421875,-0.0225830078125,0.860595703125,-0.816793893129771,-3.6030534351145036,0.33587786259541985,0.0023174285888671875
154,0.02197265625,-0.0208740234375,0.86474609375,-0.8015267175572519,-3.8244274809160306,-0.015267175572519083,0.002317667007446289
153,0.02001953125,-0.0274658203125,0.8642578125,-0.8244274809160306,-3.9389312977099236,0.24427480916030533,0.0023174285888671875
153,0.02734375,-0.0262451171875,0.8701171875,-0.8091603053435115,-3.7709923664122136,-0.11450381679389313,0.002315998077392578
154,0.02099609375,-0.0257568359375,0.86328125,-0.8931297709923665,-3.854961832061069,0.20610687022900764,0.0023305416107177734
153,0.01513671875,-0.0264892578125,0.863037109375,-0.7022900763358778,-3.900763358778626,0.1984732824427481,0.002318859100341797
153,0.01806640625,-0.0223388671875,0.86962890625,-0.7557251908396947,-3.687022900763359,0.10687022900763359,0.002317190170288086
154,0.01513671875,-0.0260009765625,0.8642578125,-0.7099236641221374,-3.854961832061069,0.16793893129770993,0.002317667007446289
153,0.017333984375,-0.0252685546875,0.864501953125,-0.6335877862595419,-3.717557251908397,0.007633587786259542,0.002315521240234375
153,0.01806640625,-0.0299072265625,0.863525390625,-0.6870229007633588,-3.9770992366412212,0.13740458015267176,0.002317190170288086
153,0.0185546875,-0.0296630859375,0.86279296875,-0.8473282442748091,-3.8244274809160306,0.09923664122137404,0.0023164749145507812
153,0.010009765625,-0.0277099609375,0.863525390625,-0.8091603053435115,-3.8244274809160306,0.15267175572519084,0.0023164749145507812
153,0.016845703125,-0.0281982421875,0.8623046875,-0.9083969465648855,-3.732824427480916,0.22900763358778625,0.002317190170288086
152,0.017333984375,-0.0240478515625,0.871826171875,-0.7099236641221374,-3.7709923664122136,0.05343511450381679,0.0023317337036132812
153,0.018798828125,-0.0318603515625,0.858154296875,-0.7175572519083969,-3.83206106870229,0.1450381679389313,0.0023217201232910156
153,0.018310546875,-0.0252685546875,0.855712890625,-0.8854961832061069,-3.717557251908397,0.1297709923664122,0.002317667007446289
152,0.02197265625,-0.0255126953125,0.85693359375,-0.6870229007633588,-3.786259541984733,-0.022900763358778626,0.0023174285888671875
159,0.0224609375,-0.0286865234375,0.858642578125,-0.732824427480916,-3.6946564885496183,0.2595419847328244,0.002317667007446289
153,0.01318359375,-0.0255126953125,0.85986328125,-0.8702290076335878,-3.9160305343511452,0.16030534351145037,0.0023164749145507812
153,0.016845703125,-0.0220947265625,0.853515625,-0.8625954198473282,-3.946564885496183,0.08396946564885496,0.0023186206817626953
153,0.018310546875,-0.0264892578125,0.8623046875,-0.8931297709923665,-3.786259541984733,0.015267175572519083,0.0023224353790283203
153,0.019287109375,-0.0252685546875,0.868896484375,-0.7862595419847328,-3.786259541984733,0.061068702290076333,0.0024864673614501953
153,0.0224609375,-0.0269775390625,0.863037109375,-0.6793893129770993,-3.801526717557252,0.07633587786259542,0.002418041229248047
153,0.017333984375,-0.0262451171875,0.86572265625,-0.9312977099236641,-3.8702290076335877,0.030534351145038167,0.002319812774658203
153,0.01708984375,-0.0343017578125,0.866943359375,-0.7862595419847328,-3.6412213740458017,-0.015267175572519083,0.0023233890533447266
153,0.0224609375,-0.0255126953125,0.854736328125,-0.816793893129771,-3.8702290076335877,0.1450381679389313,0.0023162364959716797
153,0.024658203125,-0.0301513671875,0.855712890625,-0.6564885496183206,-3.8091603053435112,0.15267175572519084,0.0023288726806640625
153,0.016357421875,-0.0289306640625,0.85400390625,-0.916030534351145,-3.66412213740458,0.04580152671755725,0.0023152828216552734
153,0.018310546875,-0.0301513671875,0.8505859375,-0.6106870229007634,-3.9389312977099236,0.0,0.002318143844604492
152,0.01611328125,-0.0238037109375,0.86572265625,-0.7099236641221374,-4.030534351145038,0.17557251908396945,0.002317667007446289
153,0.015625,-0.0213623046875,0.862548828125,-0.7557251908396947,-3.984732824427481,0.2366412213740458,0.002318859100341797
153,0.020263671875,-0.0213623046875,0.865478515625,-0.9083969465648855,-3.763358778625954,0.1297709923664122,0.002318143844604492
153,0.017822265625,-0.0235595703125,0.861328125,-0.732824427480916,-3.648854961832061,0.1297709923664122,0.002316713333129883
153,0.016357421875,-0.0181884765625,0.859130859375,-0.7557251908396947,-3.8244274809160306,0.2748091603053435,0.002317190170288086
154,0.01220703125,-0.0260009765625,0.860107421875,-0.6564885496183206,-3.9160305343511452,0.20610687022900764,0.002317190170288086
153,0.025146484375,-0.0252685546875,0.8623046875,-0.732824427480916,-3.732824427480916,0.21374045801526717,0.0023195743560791016
153,0.018310546875,-0.0223388671875,0.8720703125,-0.9389312977099237,-3.9160305343511452,0.015267175572519083,0.002316713333129883
153,0.019287109375,-0.0269775390625,0.858642578125,-0.7099236641221374,-3.8702290076335877,0.3893129770992366,0.002317667007446289
152,0.021484375,-0.0245361328125,0.87548828125,-0.6870229007633588,-3.7938931297709924,0.13740458015267176,0.0023183822631835938
154,0.01953125,-0.0301513671875,0.863037109375,-0.5801526717557252,-3.8396946564885495,0.24427480916030533,0.0023164749145507812
153,0.021484375,-0.0235595703125,0.859619140625,-0.6946564885496184,-3.9160305343511452,0.13740458015267176,0.0023169517517089844
152,0.015625,-0.0211181640625,0.859619140625,-0.732824427480916,-3.717557251908397,0.05343511450381679,0.002317190170288086
153,0.021240234375,-0.0291748046875,0.866943359375,-0.5419847328244275,-4.0458015267175576,0.24427480916030533,0.0023164749145507812
153,0.021240234375,-0.0316162109375,0.858154296875,-0.8320610687022901,-3.786259541984733,0.1297709923664122,0.002317190170288086
154,0.017578125,-0.0269775390625,0.857177734375,-0.7175572519083969,-3.954198473282443,-0.007633587786259542,0.0023164749145507812
154,0.01904296875,-0.0294189453125,0.863525390625,-0.7251908396946565,-4.030534351145038,0.08396946564885496,0.0026085376739501953
155,0.0224609375,-0.0281982421875,0.864990234375,-0.816793893129771,-3.8931297709923665,0.22137404580152673,0.0023322105407714844
153,0.022216796875,-0.0257568359375,0.8642578125,-0.8702290076335878,-3.7022900763358777,0.10687022900763359,0.002320528030395508
154,0.0185546875,-0.0291748046875,0.86279296875,-0.7557251908396947,-3.7786259541984735,0.0,0.0023179054260253906
154,0.02490234375,-0.0262451171875,0.867919921875,-0.9236641221374046,-3.885496183206107,0.022900763358778626,0.002316713333129883
155,0.0166015625,-0.0235595703125,0.862060546875,-0.7480916030534351,-3.6564885496183206,0.20610687022900764,0.002318143844604492
155,0.01025390625,-0.0260009765625,0.86376953125,-0.9389312977099237,-3.7022900763358777,0.20610687022900764,0.0023162364959716797
155,0.01904296875,-0.0250244140625,0.866943359375,-0.6030534351145038,-3.633587786259542,0.11450381679389313,0.0023179054260253906
155,0.017578125,-0.0255126953125,0.8583984375,-0.549618320610687,-3.8244274809160306,0.1297709923664122,0.0023164749145507812
155,0.019775390625,-0.0281982421875,0.862060546875,-0.7709923664122137,-3.595419847328244,0.1297709923664122,0.0023179054260253906
155,0.010498046875,-0.0257568359375,0.857177734375,-0.7557251908396947,-3.763358778625954,0.061068702290076333,0.0023174285888671875
155,0.02001953125,-0.0296630859375,0.860107421875,-0.8702290076335878,-3.7404580152671754,0.08396946564885496,0.0023164749145507812
155,0.020751953125,-0.0247802734375,0.866943359375,-0.8625954198473282,-3.7251908396946565,0.19083969465648856,0.0023169517517089844
155,0.014404296875,-0.0262451171875,0.8623046875,-0.8396946564885496,-3.6717557251908395,0.0,0.0023965835571289062
155,0.014404296875,-0.0308837890625,0.861083984375,-0.8244274809160306,-3.6946564885496183,0.12213740458015267,0.0023190975189208984
153,0.014404296875,-0.0296630859375,0.860107421875,-0.7404580152671756,-3.6946564885496183,0.22137404580152673,0.0023179054260253906
155,0.0205078125,-0.0350341796875,0.86279296875,-0.8015267175572519,-3.732824427480916,0.0916030534351145,0.002317667007446289
156,0.021484375,-0.0318603515625,0.868408203125,-0.7557251908396947,-3.8091603053435112,0.1450381679389313,0.002317190170288086
154,0.015380859375,-0.0247802734375,0.860595703125,-0.7175572519083969,-3.7480916030534353,0.06870229007633588,0.002324819564819336
155,0.015625,-0.0306396484375,0.862548828125,-0.6946564885496184,-3.7251908396946565,0.09923664122137404,0.002315998077392578
155,0.012451171875,-0.0291748046875,0.86279296875,-0.6793893129770993,-3.763358778625954,0.1297709923664122,0.0023179054260253906
155,0.017333984375,-0.0225830078125,0.860595703125,-0.7099236641221374,-3.854961832061069,0.13740458015267176,0.002323627471923828
155,0.017333984375,-0.0252685546875,0.86376953125,-0.7022900763358778,-3.732824427480916,0.1984732824427481,0.0023162364959716797
155,0.01513671875,-0.0281982421875,0.866943359375,-0.6717557251908397,-3.8244274809160306,-0.07633587786259542,0.002315998077392578
156,0.01806640625,-0.0245361328125,0.86279296875,-0.7709923664122137,-3.7938931297709924,0.16793893129770993,0.0023179054260253906
155,0.019287109375,-0.0216064453125,0.876708984375,-0.7633587786259542,-3.8931297709923665,0.007633587786259542,0.002316713333129883
156,0.012451171875,-0.0242919921875,0.86572265625,-0.9389312977099237,-3.66412213740458,0.12213740458015267,0.0023164749145507812
155,0.019287109375,-0.0255126953125,0.861328125,-0.9389312977099237,-3.6564885496183206,0.1984732824427481,0.0023169517517089844
155,0.021728515625,-0.0247802734375,0.85546875,-0.8244274809160306,-3.7404580152671754,0.25190839694656486,0.0023169517517089844
155,0.01171875,-0.0272216796875,0.859619140625,-0.5190839694656488,-3.946564885496183,0.16030534351145037,0.002316713333129883
156,0.02197265625,-0.0201416015625,0.869873046875,-0.7557251908396947,-3.9770992366412212,0.07633587786259542,0.0023164749145507812
156,0.020263671875,-0.0230712890625,0.87060546875,-0.8625954198473282,-3.6717557251908395,0.08396946564885496,0.002317190170288086
156,0.0166015625,-0.0272216796875,0.86572265625,-0.549618320610687,-3.8931297709923665,0.022900763358778626,0.002316713333129883
156,0.012939453125,-0.0255126953125,0.863525390625,-0.5801526717557252,-3.83206106870229,-0.04580152671755725,0.0023169517517089844
156,0.023193359375,-0.0233154296875,0.8583984375,-0.5801526717557252,-3.7251908396946565,-0.1984732824427481,0.002336740493774414
157,0.01025390625,-0.0330810546875,0.86474609375,-0.549618320610687,-3.877862595419847,0.13740458015267176,0.0023462772369384766
157,0.018798828125,-0.0240478515625,0.862060546875,-0.9007633587786259,-3.801526717557252,0.1450381679389313,0.002325296401977539
157,0.016357421875,-0.0269775390625,0.86279296875,-0.7251908396946565,-3.8473282442748094,0.10687022900763359,0.0023152828216552734
156,0.0185546875,-0.0228271484375,0.85693359375,-0.7175572519083969,-4.068702290076335,0.09923664122137404,0.002317190170288086
157,0.019287109375,-0.0194091796875,0.8642578125,-0.7862595419847328,-3.8625954198473282,0.12213740458015267,0.0023152828216552734
157,0.017578125,-0.0230712890625,0.8671875,-0.732824427480916,-3.8625954198473282,0.10687022900763359,0.002316713333129883
157,0.026123046875,-0.0269775390625,0.863037109375,-0.8473282442748091,-3.6717557251908395,0.022900763358778626,0.0023169517517089844
157,0.017822265625,-0.0262451171875,0.865478515625,-0.7022900763358778,-3.8625954198473282,0.061068702290076333,0.002315998077392578
157,0.02392578125,-0.0286865234375,0.861083984375,-0.732824427480916,-3.931297709923664,0.030534351145038167,0.0023174285888671875
157,0.0166015625,-0.0245361328125,0.85595703125,-0.7557251908396947,-3.7786259541984735,0.183206106870229,0.0024149417877197266
159,0.014404296875,-0.0267333984375,0.85986328125,-0.7862595419847328,-3.9770992366412212,-0.12213740458015267,0.002320528030395508
157,0.015869140625,-0.0255126953125,0.85693359375,-0.8015267175572519,-3.7099236641221376,0.05343511450381679,0.0023391246795654297
158,0.0146484375,-0.0279541015625,0.863525390625,-0.6564885496183206,-3.7251908396946565,0.03816793893129771,0.002318859100341797
158,0.017822265625,-0.0257568359375,0.868896484375,-0.8244274809160306,-3.732824427480916,0.12213740458015267,0.0023336410522460938
157,0.010986328125,-0.0286865234375,0.8662109375,-0.7099236641221374,-3.816793893129771,-0.061068702290076333,0.0023200511932373047
158,0.01806640625,-0.0228271484375,0.87109375,-0.6412213740458015,-3.7557251908396947,0.08396946564885496,0.0023190975189208984
157,0.016845703125,-0.0294189453125,0.8564453125,-0.9465648854961832,-3.7480916030534353,0.11450381679389313,0.0023164749145507812
157,0.01806640625,-0.0328369140625,0.863037109375,-0.732824427480916,-3.732824427480916,0.06870229007633588,0.002317190170288086
157,0.019775390625,-0.0250244140625,0.864013671875,-0.6106870229007634,-3.7480916030534353,0.1984732824427481,0.002316713333129883
158,0.015625,-0.0272216796875,0.865966796875,-0.6412213740458015,-4.0,0.16793893129770993,0.0023162364959716797
157,0.02197265625,-0.0257568359375,0.87060546875,-0.8015267175572519,-3.6030534351145036,0.3053435114503817,0.0023169517517089844
157,0.018798828125,-0.0250244140625,0.861328125,-0.7709923664122137,-3.8244274809160306,0.030534351145038167,0.002316713333129883
157,0.017822265625,-0.0279541015625,0.854736328125,-0.7404580152671756,-3.816793893129771,0.17557251908396945,0.002317190170288086
159,0.023681640625,-0.0235595703125,0.864501953125,-0.6183206106870229,-3.8396946564885495,0.0916030534351145,0.0023164749145507812
157,0.02197265625,-0.0223388671875,0.867431640625,-0.7633587786259542,-3.8091603053435112,0.2900763358778626,0.002317190170288086
156,0.019287109375,-0.0272216796875,0.8642578125,-0.6870229007633588,-3.8244274809160306,0.06870229007633588,0.002316713333129883
157,0.01904296875,-0.0238037109375,0.859130859375,-0.8854961832061069,-3.854961832061069,0.12213740458015267,0.002315044403076172
156,0.025634765625,-0.0299072265625,0.858154296875,-0.816793893129771,-3.8473282442748094,0.16793893129770993,0.0023164749145507812
157,0.01611328125,-0.0262451171875,0.856201171875,-0.7175572519083969,-3.900763358778626,0.10687022900763359,0.0026121139526367188
157,0.022216796875,-0.0277099609375,0.856689453125,-0.8625954198473282,-3.4885496183206106,0.08396946564885496,0.002335786819458008
157,0.01611328125,-0.0211181640625,0.86083984375,-0.7175572519083969,-3.816793893129771,0.1450381679389313,0.0023195743560791016
156,0.015380859375,-0.0235595703125,0.856689453125,-0.8320610687022901,-3.7404580152671754,0.10687022900763359,0.002317190170288086
157,0.017333984375,-0.0245361328125,0.86181640625,-0.7786259541984732,-3.8702290076335877,0.16793893129770993,0.0023174285888671875
157,0.012939453125,-0.0289306640625,0.870849609375,-0.7862595419847328,-3.648854961832061,-0.022900763358778626,0.0023174285888671875
157,0.0166015625,-0.0250244140625,0.85791015625,-0.7709923664122137,-3.7709923664122136,0.1297709923664122,0.0023174285888671875
157,0.0166015625,-0.0274658203125,0.866455078125,-0.6641221374045801,-3.816793893129771,0.015267175572519083,0.0023174285888671875
154,0.0205078125,-0.0220947265625,0.870849609375,-0.7709923664122137,-3.9236641221374047,-0.09923664122137404,0.0023164749145507812
157,0.019287109375,-0.0228271484375,0.8583984375,-0.5648854961832062,-3.7557251908396947,0.12213740458015267,0.0023183822631835938
158,0.0185546875,-0.0281982421875,0.86181640625,-0.8396946564885496,-3.9618320610687023,0.0,0.002315521240234375
157,0.021728515625,-0.0260009765625,0.859130859375,-0.6412213740458015,-3.885496183206107,-0.05343511450381679,0.0023152828216552734
156,0.01708984375,-0.0272216796875,0.86669921875,-0.5954198473282443,-3.9389312977099236,0.24427480916030533,0.002317667007446289
157,0.01806640625,-0.0216064453125,0.868896484375,-0.7480916030534351,-3.877862595419847,0.09923664122137404,0.002316713333129883
156,0.015380859375,-0.0250244140625,0.861328125,-0.6641221374045801,-3.6412213740458017,0.12213740458015267,0.0023169517517089844
157,0.020751953125,-0.0223388671875,0.866943359375,-0.7862595419847328,-3.7557251908396947,0.32061068702290074,0.002315998077392578
156,0.01953125,-0.0267333984375,0.861572265625,-0.7633587786259542,-3.8091603053435112,0.1450381679389313,0.0023202896118164062
157,0.014892578125,-0.0303955078125,0.8642578125,-0.6412213740458015,-3.8473282442748094,0.08396946564885496,0.0023164749145507812
156,0.016357421875,-0.0301513671875,0.8642578125,-0.7633587786259542,-3.7480916030534353,0.09923664122137404,0.002316713333129883
157,0.0185546875,-0.0264892578125,0.86279296875,-0.6412213740458015,-3.7404580152671754,0.030534351145038167,0.0023169517517089844
157,0.0185546875,-0.0206298828125,0.86865234375,-0.7709923664122137,-3.9160305343511452,0.06870229007633588,0.0023164749145507812
155,0.013671875,-0.0242919921875,0.86474609375,-0.648854961832061,-3.7022900763358777,0.0916030534351145,0.0023169517517089844
156,0.00927734375,-0.0252685546875,0.86181640625,-0.7022900763358778,-3.83206106870229,0.1984732824427481,0.002315521240234375
156,0.01904296875,-0.0230712890625,0.8642578125,-0.7709923664122137,-3.7251908396946565,0.24427480916030533,0.0023157596588134766
156,0.016845703125,-0.0240478515625,0.86083984375,-0.7709923664122137,-4.0,0.04580152671755725,0.002315521240234375
155,0.0205078125,-0.0255126953125,0.86572265625,-0.7404580152671756,-3.946564885496183,0.33587786259541985,0.0023157596588134766
156,0.01416015625,-0.0252685546875,0.861328125,-0.7862595419847328,-3.7022900763358777,0.183206106870229,0.0023162364959716797
156,0.02587890625,-0.0233154296875,0.862548828125,-0.7404580152671756,-3.7404580152671754,0.11450381679389313,0.002315521240234375
156,0.019775390625,-0.0284423828125,0.86865234375,-0.7404580152671756,-3.687022900763359,0.22137404580152673,0.0023169517517089844
157,0.016845703125,-0.0250244140625,0.85986328125,-0.7862595419847328,-3.984732824427481,0.1297709923664122,0.002315044403076172
157,0.01904296875,-0.0242919921875,0.863525390625,-0.5725190839694656,-3.6717557251908395,0.26717557251908397,0.002315998077392578
157,0.0234375,-0.0274658203125,0.874267578125,-0.7022900763358778,-3.5877862595419847,0.17557251908396945,0.002315521240234375
157,0.022216796875,-0.0250244140625,0.864990234375,-0.6870229007633588,-3.8396946564885495,0.11450381679389313,0.002315998077392578
157,0.01513671875,-0.0223388671875,0.865478515625,-0.7709923664122137,-3.732824427480916,0.022900763358778626,0.0023169517517089844
158,0.01416015625,-0.0272216796875,0.870849609375,-0.8854961832061069,-3.854961832061069,0.21374045801526717,0.0023152828216552734
158,0.022705078125,-0.0262451171875,0.85693359375,-0.916030534351145,-3.8473282442748094,0.03816793893129771,0.0023164749145507812
156,0.018310546875,-0.0240478515625,0.8662109375,-0.8549618320610687,-3.7938931297709924,0.16030534351145037,0.0023157596588134766
157,0.018310546875,-0.0330810546875,0.86669921875,-0.7175572519083969,-3.801526717557252,0.12213740458015267,0.002315998077392578
143,0.016845703125,-0.0218505859375,0.865478515625,-0.8396946564885496,-3.7251908396946565,0.007633587786259542,0.002315521240234375
156,0.014404296875,-0.0269775390625,0.865966796875,-0.816793893129771,-3.618320610687023,0.15267175572519084,0.002317190170288086
156,0.02099609375,-0.0284423828125,0.865478515625,-0.8320610687022901,-3.786259541984733,0.15267175572519084,0.0023174285888671875
156,0.019775390625,-0.0238037109375,0.8662109375,-0.6259541984732825,-3.83206106870229,0.29770992366412213,0.002315521240234375
156,0.017333984375,-0.0294189453125,0.87109375,-0.7862595419847328,-4.00763358778626,0.1297709923664122,0.002316713333129883
155,0.015380859375,-0.0272216796875,0.863525390625,-0.7404580152671756,-3.7022900763358777,0.22137404580152673,0.0023148059844970703
156,0.019287109375,-0.0250244140625,0.86279296875,-0.8778625954198473,-3.9618320610687023,0.08396946564885496,0.0023314952850341797
155,0.0146484375,-0.0225830078125,0.863525390625,-0.7786259541984732,-3.5114503816793894,0.08396946564885496,0.002320528030395508
155,0.02294921875,-0.0267333984375,0.857666015625,-0.7251908396946565,-3.9389312977099236,0.12213740458015267,0.0023174285888671875
155,0.01318359375,-0.0286865234375,0.863037109375,-0.7633587786259542,-3.763358778625954,0.22900763358778625,0.0023186206817626953
155,0.0185546875,-0.0225830078125,0.86376953125,-0.7786259541984732,-3.8702290076335877,0.16793893129770993,0.0023164749145507812
154,0.013916015625,-0.0279541015625,0.859130859375,-0.6793893129770993,-3.83206106870229,0.2748091603053435,0.0023174285888671875
154,0.019287109375,-0.0242919921875,0.86083984375,-0.7251908396946565,-4.0458015267175576,0.1297709923664122,0.002317190170288086
153,0.0224609375,-0.0347900390625,0.87255859375,-0.7251908396946565,-3.5801526717557253,0.06870229007633588,0.0023169517517089844
153,0.013916015625,-0.0264892578125,0.8662109375,-0.8244274809160306,-3.9083969465648853,0.07633587786259542,0.0023174285888671875
155,0.017822265625,-0.0196533203125,0.8623046875,-0.7557251908396947,-4.00763358778626,0.05343511450381679,0.002317190170288086
153,0.02099609375,-0.0318603515625,0.863525390625,-0.5877862595419847,-3.7480916030534353,0.2824427480916031,0.0023174285888671875
159,0.011962890625,-0.0216064453125,0.860595703125,-0.7557251908396947,-3.816793893129771,0.12213740458015267,0.002317190170288086
153,0.021728515625,-0.0279541015625,0.868408203125,-0.6793893129770993,-3.9160305343511452,0.25190839694656486,0.002317190170288086
153,0.02392578125,-0.0296630859375,0.8603515625,-0.6946564885496184,-3.816793893129771,0.1297709923664122,0.0023174285888671875
153,0.0107421875,-0.0257568359375,0.86328125,-0.7786259541984732,-3.969465648854962,0.0,0.0023162364959716797
153,0.02001953125,-0.0238037109375,0.862548828125,-0.7480916030534351,-3.8625954198473282,0.13740458015267176,0.0023527145385742188
154,0.017822265625,-0.0328369140625,0.85595703125,-0.6564885496183206,-3.6946564885496183,0.183206106870229,0.0023183822631835938
153,0.016357421875,-0.0201416015625,0.867431640625,-0.6870229007633588,-3.900763358778626,-0.03816793893129771,0.002316713333129883
153,0.016357421875,-0.0179443359375,0.861572265625,-0.4961832061068702,-3.9083969465648853,0.22137404580152673,0.0023169517517089844
152,0.019287109375,-0.0257568359375,0.870361328125,-0.6793893129770993,-3.854961832061069,0.04580152671755725,0.002467632293701172
152,0.018798828125,-0.0299072265625,0.8642578125,-0.7709923664122137,-3.7557251908396947,0.030534351145038167,0.0023300647735595703
153,0.013671875,-0.0252685546875,0.8701171875,-0.8015267175572519,-3.9083969465648853,0.16793893129770993,0.002318859100341797
153,0.015869140625,-0.0225830078125,0.8740234375,-0.8931297709923665,-3.786259541984733,0.12213740458015267,0.002317667007446289
153,0.017333984375,-0.0245361328125,0.859375,-0.6641221374045801,-3.5343511450381677,-0.04580152671755725,0.0023174285888671875
154,0.021484375,-0.0272216796875,0.864990234375,-0.7938931297709924,-3.816793893129771,0.2595419847328244,0.0023183822631835938
153,0.0166015625,-0.0264892578125,0.860595703125,-0.8396946564885496,-3.816793893129771,0.1450381679389313,0.002318143844604492
153,0.0146484375,-0.0260009765625,0.8623046875,-0.7862595419847328,-3.816793893129771,-0.12213740458015267,0.002315998077392578
153,0.01806640625,-0.0264892578125,0.85302734375,-0.8320610687022901,-3.7404580152671754,0.32061068702290074,0.002317667007446289
152,0.019287109375,-0.0240478515625,0.856201171875,-0.8015267175572519,-3.732824427480916,0.15267175572519084,0.002315521240234375
153,0.01904296875,-0.0279541015625,0.857666015625,-0.7633587786259542,-4.099236641221374,0.0,0.0023164749145507812
153,0.025146484375,-0.0252685546875,0.8623046875,-0.8244274809160306,-3.7938931297709924,0.1297709923664122,0.002315044403076172
153,0.017333984375,-0.0281982421875,0.860595703125,-0.7557251908396947,-3.5267175572519083,0.030534351145038167,0.002316713333129883
154,0.01708984375,-0.0274658203125,0.860107421875,-0.8625954198473282,-3.9160305343511452,0.007633587786259542,0.002317667007446289
154,0.02001953125,-0.0235595703125,0.873046875,-0.6335877862595419,-3.7709923664122136,0.10687022900763359,0.0023169517517089844
155,0.018310546875,-0.0294189453125,0.86962890625,-0.6335877862595419,-3.8625954198473282,0.09923664122137404,0.002316713333129883
155,0.02001953125,-0.0301513671875,0.862548828125,-0.7251908396946565,-3.5572519083969465,0.16030534351145037,0.0023174285888671875
155,0.018798828125,-0.0260009765625,0.864990234375,-0.6870229007633588,-3.816793893129771,0.11450381679389313,0.0023164749145507812
151,0.014404296875,-0.0299072265625,0.86474609375,-0.7022900763358778,-3.7709923664122136,0.2366412213740458,0.0023169517517089844
156,0.01611328125,-0.0223388671875,0.86572265625,-0.7938931297709924,-3.7938931297709924,0.1984732824427481,0.0023431777954101562
156,0.0205078125,-0.0218505859375,0.86572265625,-0.8091603053435115,-3.931297709923664,0.10687022900763359,0.0023250579833984375
156,0.019775390625,-0.0245361328125,0.864990234375,-0.7175572519083969,-3.801526717557252,0.16030534351145037,0.002315521240234375
156,0.0166015625,-0.0218505859375,0.85400390625,-0.9236641221374046,-3.885496183206107,-0.06870229007633588,0.002317190170288086
157,0.016845703125,-0.0272216796875,0.861083984375,-0.8091603053435115,-3.6793893129770994,0.12213740458015267,0.002316713333129883
156,0.015380859375,-0.0264892578125,0.8603515625,-0.816793893129771,-3.9618320610687023,0.10687022900763359,0.002317190170288086
156,0.01318359375,-0.0289306640625,0.8701171875,-0.8625954198473282,-3.9389312977099236,-0.17557251908396945,0.002316713333129883
157,0.014892578125,-0.0247802734375,0.8671875,-0.5877862595419847,-3.66412213740458,0.03816793893129771,0.0023169517517089844
160,0.014892578125,-0.0289306640625,0.856201171875,-0.6946564885496184,-3.7938931297709924,0.09923664122137404,0.0023169517517089844
157,0.01904296875,-0.0269775390625,0.862060546875,-0.8778625954198473,-3.6106870229007635,0.007633587786259542,0.002316713333129883
157,0.015625,-0.0242919921875,0.86279296875,-0.8396946564885496,-3.7709923664122136,0.2595419847328244,0.002316713333129883
157,0.015625,-0.0279541015625,0.868896484375,-0.7709923664122137,-3.931297709923664,-0.11450381679389313,0.002317667007446289
157,0.01171875,-0.0242919921875,0.862548828125,-0.6946564885496184,-3.946564885496183,0.19083969465648856,0.002317190170288086
158,0.009033203125,-0.0242919921875,0.860595703125,-0.6106870229007634,-3.9160305343511452,-0.06870229007633588,0.002316713333129883
158,0.017578125,-0.0284423828125,0.861083984375,-0.7251908396946565,-3.763358778625954,0.0,0.002315998077392578
158,0.017822265625,-0.0238037109375,0.859375,-0.6946564885496184,-4.030534351145038,0.12213740458015267,0.002315521240234375
159,0.01904296875,-0.0216064453125,0.868896484375,-0.6641221374045801,-3.9160305343511452,0.19083969465648856,0.002315521240234375
158,0.0244140625,-0.0262451171875,0.86474609375,-0.8473282442748091,-3.732824427480916,0.2366412213740458,0.002315998077392578
158,0.02099609375,-0.0267333984375,0.8642578125,-0.7709923664122137,-3.9923664122137406,0.183206106870229,0.002316713333129883
158,0.019287109375,-0.0343017578125,0.862548828125,-0.7786259541984732,-3.7251908396946565,0.0916030534351145,0.0023152828216552734
158,0.02099609375,-0.0277099609375,0.864990234375,-0.8320610687022901,-3.6412213740458017,0.16030534351145037,0.0023174285888671875
157,0.015869140625,-0.0284423828125,0.8642578125,-0.6183206106870229,-3.8244274809160306,0.10687022900763359,0.0023148059844970703
158,0.013427734375,-0.0264892578125,0.85888671875,-0.7709923664122137,-3.786259541984733,0.20610687022900764,0.002317190170288086
158,0.02392578125,-0.0179443359375,0.864501953125,-0.7022900763358778,-3.717557251908397,-0.0916030534351145,0.0023164749145507812
158,0.017822265625,-0.0206298828125,0.8564453125,-0.7251908396946565,-3.931297709923664,0.35877862595419846,0.0023162364959716797
157,0.020751953125,-0.0257568359375,0.864990234375,-0.8549618320610687,-3.786259541984733,0.15267175572519084,0.0023331642150878906
159,0.016845703125,-0.0233154296875,0.85693359375,-0.7709923664122137,-3.801526717557252,0.1297709923664122,0.0023186206817626953
159,0.017822265625,-0.0257568359375,0.854736328125,-0.8931297709923665,-3.6564885496183206,0.05343511450381679,0.0023593902587890625
159,0.016845703125,-0.0264892578125,0.865966796875,-0.732824427480916,-3.549618320610687,0.29770992366412213,0.0023288726806640625
153,0.015869140625,-0.0233154296875,0.858154296875,-0.7404580152671756,-3.9236641221374047,0.09923664122137404,0.002318859100341797
160,0.01513671875,-0.0262451171875,0.86181640625,-0.6335877862595419,-3.6793893129770994,0.10687022900763359,0.0023186206817626953
159,0.011962890625,-0.0230712890625,0.866943359375,-0.8244274809160306,-4.038167938931298,0.007633587786259542,0.0023174285888671875
159,0.016845703125,-0.0228271484375,0.864013671875,-0.7480916030534351,-3.7786259541984735,0.19083969465648856,0.002317190170288086
160,0.018310546875,-0.0242919921875,0.861083984375,-0.8244274809160306,-3.763358778625954,0.0,0.0023169517517089844
160,0.018310546875,-0.0279541015625,0.863525390625,-0.5572519083969466,-3.732824427480916,0.0916030534351145,0.002317190170288086
160,0.0185546875,-0.0255126953125,0.858642578125,-0.5877862595419847,-3.801526717557252,0.07633587786259542,0.002316713333129883
160,0.015625,-0.0208740234375,0.859619140625,-0.7480916030534351,-3.786259541984733,0.2366412213740458,0.002316713333129883
160,0.017578125,-0.0235595703125,0.861572265625,-0.6183206106870229,-3.6946564885496183,0.19083969465648856,0.0023179054260253906
161,0.01513671875,-0.0235595703125,0.864501953125,-0.8396946564885496,-3.7251908396946565,-0.061068702290076333,0.002315044403076172
160,0.01953125,-0.0242919921875,0.86767578125,-0.7709923664122137,-3.7938931297709924,0.0916030534351145,0.002318143844604492
160,0.017333984375,-0.0223388671875,0.856689453125,-0.7633587786259542,-3.8931297709923665,0.21374045801526717,0.002315521240234375
160,0.018798828125,-0.0272216796875,0.860595703125,-0.6717557251908397,-3.9923664122137406,0.08396946564885496,0.0023169517517089844
156,0.0185546875,-0.0284423828125,0.86279296875,-0.8473282442748091,-3.801526717557252,0.0,0.0023164749145507812
160,0.019775390625,-0.0235595703125,0.858642578125,-0.9618320610687023,-3.7251908396946565,0.07633587786259542,0.0023152828216552734
160,0.01806640625,-0.0269775390625,0.864990234375,-0.648854961832061,-3.885496183206107,0.2824427480916031,0.002317190170288086
161,0.022216796875,-0.0247802734375,0.863525390625,-0.916030534351145,-3.763358778625954,0.015267175572519083,0.0025730133056640625
161,0.013916015625,-0.0299072265625,0.85986328125,-0.6641221374045801,-3.7480916030534353,0.09923664122137404,0.0023393630981445312
159,0.01611328125,-0.0347900390625,0.8671875,-0.8778625954198473,-3.7099236641221376,0.07633587786259542,0.0023202896118164062
160,0.0146484375,-0.0277099609375,0.86767578125,-0.6564885496183206,-4.0534351145038165,-0.05343511450381679,0.002317667007446289
160,0.01904296875,-0.0262451171875,0.86572265625,-0.7633587786259542,-3.6412213740458017,0.1984732824427481,0.002317667007446289
160,0.010986328125,-0.0233154296875,0.86328125,-0.7480916030534351,-3.732824427480916,0.0,0.002316713333129883
158,0.015625,-0.0299072265625,0.870849609375,-0.7557251908396947,-3.8931297709923665,0.25190839694656486,0.0023152828216552734
160,0.020751953125,-0.0247802734375,0.869873046875,-0.7633587786259542,-3.9770992366412212,0.22137404580152673,0.002317667007446289
160,0.014404296875,-0.0306396484375,0.860595703125,-0.648854961832061,-3.564885496183206,-0.015267175572519083,0.0023174285888671875
160,0.023193359375,-0.0230712890625,0.87353515625,-0.816793893129771,-3.6793893129770994,0.07633587786259542,0.002317190170288086
159,0.014892578125,-0.0279541015625,0.857177734375,-0.8015267175572519,-3.7022900763358777,0.10687022900763359,0.002317190170288086
160,0.018798828125,-0.0218505859375,0.871826171875,-0.7557251908396947,-3.801526717557252,0.183206106870229,0.002317667007446289
160,0.014404296875,-0.0184326171875,0.86181640625,-0.816793893129771,-3.7786259541984735,-0.183206106870229,0.0023157596588134766
161,0.018798828125,-0.0218505859375,0.862060546875,-0.6946564885496184,-3.8625954198473282,0.183206106870229,0.002317190170288086
159,0.01904296875,-0.0257568359375,0.86767578125,-0.7480916030534351,-3.6564885496183206,0.2900763358778626,0.0023255348205566406
160,0.01708984375,-0.0269775390625,0.864990234375,-0.8854961832061069,-3.6259541984732824,0.0,0.002318143844604492
160,0.015869140625,-0.0255126953125,0.863525390625,-1.0,-3.8931297709923665,0.24427480916030533,0.0023164749145507812
160,0.0244140625,-0.0284423828125,0.87060546875,-0.8625954198473282,-4.030534351145038,0.21374045801526717,0.0023140907287597656
160,0.017333984375,-0.0191650390625,0.872802734375,-0.8931297709923665,-3.6030534351145036,0.22900763358778625,0.0023174285888671875
160,0.01611328125,-0.0235595703125,0.857666015625,-0.7099236641221374,-3.8702290076335877,0.2595419847328244,0.0023162364959716797
161,0.014892578125,-0.0255126953125,0.86083984375,-0.6717557251908397,-3.633587786259542,0.10687022900763359,0.0023164749145507812
161,0.025390625,-0.0223388671875,0.8662109375,-0.7709923664122137,-3.8473282442748094,0.08396946564885496,0.002317190170288086
159,0.017333984375,-0.0291748046875,0.870849609375,-0.6564885496183206,-3.572519083969466,0.2595419847328244,0.0023162364959716797
160,0.015380859375,-0.0213623046875,0.86962890625,-0.7099236641221374,-3.8396946564885495,0.2595419847328244,0.0023174285888671875
160,0.013916015625,-0.0240478515625,0.869384765625,-0.6106870229007634,-3.7786259541984735,0.35877862595419846,0.002315521240234375
160,0.021728515625,-0.0242919921875,0.8662109375,-0.9007633587786259,-3.969465648854962,0.007633587786259542,0.0023169517517089844
161,0.011962890625,-0.0203857421875,0.857666015625,-0.7862595419847328,-3.7557251908396947,0.11450381679389313,0.0023164749145507812
162,0.01611328125,-0.0264892578125,0.86572265625,-0.9007633587786259,-3.786259541984733,0.07633587786259542,0.0023169517517089844
160,0.02294921875,-0.0289306640625,0.87109375,-0.7480916030534351,-3.7099236641221376,0.17557251908396945,0.002335786819458008
160,0.018798828125,-0.0225830078125,0.864501953125,-0.48854961832061067,-3.816793893129771,0.06870229007633588,0.0023179054260253906
160,0.021240234375,-0.0308837890625,0.86474609375,-0.7022900763358778,-3.885496183206107,0.16793893129770993,0.002318143844604492
161,0.00830078125,-0.0230712890625,0.861328125,-0.816793893129771,-3.8244274809160306,0.13740458015267176,0.0023152828216552734
161,0.017822265625,-0.0225830078125,0.871826171875,-0.6870229007633588,-3.633587786259542,-0.007633587786259542,0.0023174285888671875
160,0.01904296875,-0.0206298828125,0.860595703125,-0.8015267175572519,-3.816793893129771,0.09923664122137404,0.0023169517517089844
160,0.014404296875,-0.0313720703125,0.865966796875,-0.8091603053435115,-3.8091603053435112,0.08396946564885496,0.002316713333129883
161,0.0234375,-0.0311279296875,0.864013671875,-0.6564885496183206,-4.00763358778626,0.2748091603053435,0.0023169517517089844
155,0.012939453125,-0.0208740234375,0.86279296875,-0.5190839694656488,-3.8625954198473282,0.183206106870229,0.002315044403076172
161,0.0126953125,-0.0272216796875,0.86669921875,-0.7633587786259542,-3.6030534351145036,0.08396946564885496,0.0023279190063476562
160,0.017578125,-0.0223388671875,0.86181640625,-0.732824427480916,-3.8244274809160306,0.3435114503816794,0.0023169517517089844
160,0.017822265625,-0.0247802734375,0.86328125,-0.6946564885496184,-4.038167938931298,0.0,0.002316713333129883
159,0.01416015625,-0.0294189453125,0.862548828125,-0.6335877862595419,-3.633587786259542,0.04580152671755725,0.0023140907287597656
160,0.01953125,-0.0269775390625,0.857666015625,-0.8854961832061069,-3.801526717557252,0.15267175572519084,0.002317190170288086
160,0.021240234375,-0.0220947265625,0.859619140625,-0.8854961832061069,-3.6106870229007635,0.0916030534351145,0.0023164749145507812
160,0.0146484375,-0.0206298828125,0.86279296875,-0.7709923664122137,-3.6717557251908395,0.3282442748091603,0.002315044403076172
160,0.013916015625,-0.0247802734375,0.86669921875,-0.6717557251908397,-3.816793893129771,0.0,0.0023322105407714844
160,0.017822265625,-0.0303955078125,0.863037109375,-0.8091603053435115,-3.732824427480916,0.16793893129770993,0.002317667007446289
159,0.01953125,-0.0289306640625,0.859130859375,-0.7557251908396947,-3.7022900763358777,0.07633587786259542,0.002317667007446289
160,0.0185546875,-0.0228271484375,0.869873046875,-0.816793893129771,-3.931297709923664,0.44274809160305345,0.002317190170288086
160,0.02001953125,-0.0269775390625,0.860107421875,-0.5572519083969466,-3.7557251908396947,-0.15267175572519084,0.002315998077392578
160,0.01708984375,-0.0272216796875,0.859130859375,-0.9618320610687023,-3.801526717557252,0.06870229007633588,0.002318143844604492
160,0.0205078125,-0.0281982421875,0.85302734375,-0.7938931297709924,-3.8473282442748094,0.0916030534351145,0.0023157596588134766
159,0.013671875,-0.0238037109375,0.857177734375,-0.8244274809160306,-4.030534351145038,0.2595419847328244,0.002316713333129883
160,0.015625,-0.0220947265625,0.862548828125,-0.8396946564885496,-3.7557251908396947,0.07633587786259542,0.0023152828216552734
169,0.01953125,-0.0277099609375,0.8681640625,-0.7404580152671756,-3.954198473282443,0.15267175572519084,0.002318143844604492
159,0.01416015625,-0.0299072265625,0.862548828125,-0.8778625954198473,-3.8473282442748094,0.0,0.002316713333129883
159,0.01806640625,-0.0257568359375,0.85009765625,-0.7099236641221374,-3.7480916030534353,0.22900763358778625,0.002315044403076172
160,0.017578125,-0.0306396484375,0.865966796875,-0.7557251908396947,-3.8244274809160306,0.29770992366412213,0.0023169517517089844
159,0.020263671875,-0.0277099609375,0.8671875,-0.6335877862595419,-3.946564885496183,0.183206106870229,0.0023164749145507812
159,0.021728515625,-0.0257568359375,0.865234375,-0.7786259541984732,-3.8396946564885495,0.022900763358778626,0.0023162364959716797
159,0.022705078125,-0.0242919921875,0.878662109375,-0.7557251908396947,-3.66412213740458,-0.10687022900763359,0.002317190170288086
160,0.014892578125,-0.0323486328125,0.8662109375,-0.8931297709923665,-3.900763358778626,0.2824427480916031,0.0023190975189208984
159,0.018310546875,-0.0267333984375,0.860107421875,-0.6030534351145038,-3.717557251908397,0.19083969465648856,0.0023174285888671875
161,0.017822265625,-0.0294189453125,0.86279296875,-0.6870229007633588,-3.7099236641221376,0.05343511450381679,0.0023162364959716797
159,0.01611328125,-0.0252685546875,0.869873046875,-0.6870229007633588,-3.9236641221374047,0.007633587786259542,0.0023169517517089844
160,0.020751953125,-0.0242919921875,0.86572265625,-0.5954198473282443,-3.763358778625954,0.13740458015267176,0.0024700164794921875
160,0.017333984375,-0.0294189453125,0.85693359375,-0.6564885496183206,-3.9160305343511452,0.030534351145038167,0.0023534297943115234
157,0.01904296875,-0.0245361328125,0.856201171875,-0.9465648854961832,-3.732824427480916,0.04580152671755725,0.0023314952850341797
160,0.01953125,-0.0257568359375,0.863525390625,-0.732824427480916,-3.7938931297709924,0.09923664122137404,0.0023298263549804688
160,0.015625,-0.0294189453125,0.86083984375,-0.5954198473282443,-3.6259541984732824,-0.022900763358778626,0.0023179054260253906
160,0.021484375,-0.0294189453125,0.856689453125,-0.7786259541984732,-3.6564885496183206,0.04580152671755725,0.002318143844604492
156,0.015625,-0.0235595703125,0.865234375,-0.8854961832061069,-3.7709923664122136,0.22137404580152673,0.002316713333129883
159,0.02099609375,-0.0264892578125,0.8623046875,-0.7862595419847328,-3.801526717557252,-0.04580152671755725,0.0023179054260253906
160,0.01220703125,-0.0264892578125,0.857421875,-1.015267175572519,-3.9083969465648853,0.26717557251908397,0.0023164749145507812
159,0.01171875,-0.0264892578125,0.860107421875,-0.7022900763358778,-3.595419847328244,0.16793893129770993,0.002317190170288086
160,0.017822265625,-0.0245361328125,0.85888671875,-0.7022900763358778,-3.885496183206107,0.09923664122137404,0.002315998077392578
160,0.009765625,-0.0213623046875,0.868408203125,-0.6870229007633588,-3.732824427480916,0.35877862595419846,0.0023164749145507812
160,0.01611328125,-0.0220947265625,0.867919921875,-0.7022900763358778,-3.8625954198473282,0.08396946564885496,0.002317190170288086
159,0.01416015625,-0.0242919921875,0.8623046875,-0.7786259541984732,-3.786259541984733,0.022900763358778626,0.0023169517517089844
159,0.020751953125,-0.0194091796875,0.864990234375,-0.816793893129771,-3.8625954198473282,0.29770992366412213,0.002317190170288086
158,0.021484375,-0.0257568359375,0.863037109375,-0.5954198473282443,-3.618320610687023,0.10687022900763359,0.0023157596588134766
159,0.013427734375,-0.0247802734375,0.86669921875,-0.816793893129771,-3.9083969465648853,0.2595419847328244,0.0023162364959716797
160,0.0166015625,-0.0247802734375,0.861328125,-0.7633587786259542,-3.8702290076335877,0.10687022900763359,0.002316713333129883
160,0.026611328125,-0.0238037109375,0.861572265625,-0.9083969465648855,-3.7709923664122136,-0.183206106870229,0.002331256866455078
160,0.01953125,-0.0238037109375,0.86669921875,-0.7862595419847328,-3.717557251908397,0.05343511450381679,0.0023245811462402344
160,0.0126953125,-0.0274658203125,0.86328125,-0.8396946564885496,-3.7709923664122136,0.061068702290076333,0.0023174285888671875
160,0.01416015625,-0.0284423828125,0.86279296875,-0.8931297709923665,-3.7938931297709924,-0.10687022900763359,0.0023190975189208984
159,0.021240234375,-0.0245361328125,0.87060546875,-0.8320610687022901,-3.946564885496183,-0.030534351145038167,0.002317190170288086
160,0.0185546875,-0.0284423828125,0.85986328125,-0.6183206106870229,-3.8091603053435112,0.1297709923664122,0.002318143844604492
160,0.0205078125,-0.0269775390625,0.8583984375,-0.7557251908396947,-3.7404580152671754,0.16793893129770993,0.002316713333129883
160,0.015869140625,-0.0272216796875,0.86865234375,-0.7786259541984732,-3.8473282442748094,0.08396946564885496,0.0023169517517089844
160,0.0185546875,-0.0272216796875,0.85205078125,-0.6870229007633588,-3.8625954198473282,0.11450381679389313,0.0023174285888671875
159,0.017578125,-0.0225830078125,0.86474609375,-0.6717557251908397,-3.83206106870229,0.07633587786259542,0.002315998077392578
162,0.01904296875,-0.0230712890625,0.861083984375,-0.6183206106870229,-3.633587786259542,0.10687022900763359,0.002315998077392578
159,0.018310546875,-0.0272216796875,0.862060546875,-0.7022900763358778,-3.732824427480916,-0.015267175572519083,0.002315998077392578
160,0.019287109375,-0.0225830078125,0.856201171875,-0.6030534351145038,-3.6793893129770994,0.1297709923664122,0.0023169517517089844
159,0.015380859375,-0.0255126953125,0.87255859375,-0.6870229007633588,-3.8702290076335877,0.015267175572519083,0.002316713333129883
158,0.020263671875,-0.0308837890625,0.8671875,-0.8625954198473282,-3.7938931297709924,0.015267175572519083,0.002317190170288086
160,0.023681640625,-0.0238037109375,0.856201171875,-0.8473282442748091,-3.7480916030534353,0.1984732824427481,0.002317190170288086
161,0.016845703125,-0.0277099609375,0.867431640625,-0.8473282442748091,-3.8473282442748094,0.09923664122137404,0.002315521240234375
160,0.01318359375,-0.0267333984375,0.865234375,-0.3816793893129771,-3.8625954198473282,0.07633587786259542,0.0023164749145507812
160,0.016845703125,-0.0257568359375,0.85986328125,-0.7633587786259542,-3.83206106870229,0.1450381679389313,0.0023162364959716797
160,0.02392578125,-0.0264892578125,0.8642578125,-0.7633587786259542,-3.6946564885496183,0.15267175572519084,0.002315998077392578
160,0.015869140625,-0.0216064453125,0.864013671875,-0.9465648854961832,-3.8091603053435112,-0.03816793893129771,0.002315044403076172
159,0.020263671875,-0.0252685546875,0.864501953125,-0.7251908396946565,-3.687022900763359,0.08396946564885496,0.002336740493774414
160,0.01416015625,-0.0240478515625,0.865966796875,-0.9618320610687023,-3.6412213740458017,0.015267175572519083,0.0023186206817626953
159,0.017578125,-0.0311279296875,0.8564453125,-0.9312977099236641,-3.8244274809160306,0.07633587786259542,0.0023152828216552734
160,0.015625,-0.0291748046875,0.8671875,-0.9236641221374046,-3.8625954198473282,-0.030534351145038167,0.002316713333129883
159,0.010498046875,-0.0225830078125,0.8671875,-0.7786259541984732,-3.8625954198473282,0.06870229007633588,0.002316713333129883
159,0.013427734375,-0.0255126953125,0.8671875,-0.8244274809160306,-3.5419847328244276,0.0,0.0023314952850341797
149,0.017822265625,-0.0238037109375,0.864990234375,-0.7862595419847328,-3.7480916030534353,0.2366412213740458,0.0023193359375
159,0.020751953125,-0.0235595703125,0.86767578125,-0.7862595419847328,-3.854961832061069,0.022900763358778626,0.0023169517517089844
159,0.025634765625,-0.0252685546875,0.863037109375,-0.7862595419847328,-3.8931297709923665,0.07633587786259542,0.0023305416107177734
159,0.0166015625,-0.0225830078125,0.868408203125,-0.7099236641221374,-3.6793893129770994,0.1984732824427481,0.0023179054260253906
159,0.014892578125,-0.0230712890625,0.87060546875,-0.6259541984732825,-3.9770992366412212,0.007633587786259542,0.002317667007446289
158,0.0166015625,-0.0279541015625,0.86669921875,-0.6564885496183206,-3.8625954198473282,0.007633587786259542,0.002316713333129883
158,0.022216796875,-0.0269775390625,0.875244140625,-0.7938931297709924,-3.687022900763359,0.16793893129770993,0.002317190170288086
159,0.016357421875,-0.0257568359375,0.8603515625,-0.6106870229007634,-3.648854961832061,0.21374045801526717,0.002317667007446289
158,0.016357421875,-0.0281982421875,0.86181640625,-0.6946564885496184,-3.8702290076335877,-0.1450381679389313,0.002315998077392578
157,0.0185546875,-0.0257568359375,0.864501953125,-0.6564885496183206,-3.5877862595419847,0.15267175572519084,0.0023174285888671875
158,0.017333984375,-0.0198974609375,0.853515625,-0.7709923664122137,-3.8702290076335877,0.16030534351145037,0.002315998077392578
158,0.01708984375,-0.0223388671875,0.861083984375,-0.6870229007633588,-3.9770992366412212,0.0916030534351145,0.002315998077392578
157,0.012451171875,-0.0279541015625,0.862060546875,-0.8702290076335878,-3.9236641221374047,0.1297709923664122,0.0023162364959716797
159,0.012939453125,-0.0238037109375,0.853515625,-0.8702290076335878,-3.595419847328244,0.04580152671755725,0.0023164749145507812
158,0.01806640625,-0.0255126953125,0.8603515625,-0.8244274809160306,-3.618320610687023,0.29770992366412213,0.0023164749145507812
157,0.01708984375,-0.0260009765625,0.862548828125,-0.7251908396946565,-4.061068702290076,0.16030534351145037,0.002315044403076172
157,0.015380859375,-0.0230712890625,0.86328125,-0.9618320610687023,-3.7099236641221376,0.13740458015267176,0.0023162364959716797
161,0.017578125,-0.0306396484375,0.864013671875,-0.6946564885496184,-3.717557251908397,0.06870229007633588,0.0023162364959716797
157,0.013427734375,-0.0257568359375,0.868896484375,-0.8091603053435115,-3.786259541984733,0.015267175572519083,0.002524137496948242
157,0.02392578125,-0.0252685546875,0.868408203125,-0.6030534351145038,-3.9236641221374047,0.1297709923664122,0.002332448959350586
157,0.01416015625,-0.0242919921875,0.869873046875,-0.5877862595419847,-3.717557251908397,0.15267175572519084,0.0023183822631835938
157,0.02001953125,-0.0252685546875,0.863525390625,-0.7404580152671756,-3.687022900763359,0.2595419847328244,0.0023186206817626953
158,0.014892578125,-0.0233154296875,0.862060546875,-0.6870229007633588,-3.816793893129771,0.07633587786259542,0.0023169517517089844
157,0.0146484375,-0.0257568359375,0.862548828125,-0.7099236641221374,-3.9923664122137406,0.0916030534351145,0.0023164749145507812
158,0.020751953125,-0.0206298828125,0.85888671875,-0.6564885496183206,-3.854961832061069,0.0,0.002317667007446289
158,0.014892578125,-0.0279541015625,0.858642578125,-0.6946564885496184,-3.7404580152671754,0.1984732824427481,0.0023140907287597656
159,0.020263671875,-0.0264892578125,0.875244140625,-0.732824427480916,-3.954198473282443,0.3511450381679389,0.002317667007446289
157,0.013916015625,-0.0240478515625,0.861083984375,-0.8854961832061069,-3.717557251908397,0.17557251908396945,0.0023164749145507812
157,0.01953125,-0.0218505859375,0.864501953125,-1.015267175572519,-3.7557251908396947,0.1297709923664122,0.0023164749145507812
158,0.0185546875,-0.0228271484375,0.8603515625,-0.7709923664122137,-3.8396946564885495,0.07633587786259542,0.0023162364959716797
159,0.0166015625,-0.0201416015625,0.870849609375,-0.7480916030534351,-3.564885496183206,0.06870229007633588,0.0023162364959716797
157,0.02294921875,-0.0262451171875,0.862060546875,-0.816793893129771,-3.900763358778626,0.17557251908396945,0.0023169517517089844
158,0.02197265625,-0.0220947265625,0.864990234375,-0.5648854961832062,-3.816793893129771,0.03816793893129771,0.002315521240234375
157,0.012451171875,-0.0262451171875,0.858154296875,-0.7175572519083969,-3.564885496183206,0.22900763358778625,0.002316713333129883
157,0.015625,-0.0284423828125,0.8681640625,-0.8854961832061069,-3.7480916030534353,-0.06870229007633588,0.002315998077392578
158,0.0146484375,-0.0262451171875,0.858642578125,-0.8320610687022901,-3.633587786259542,0.12213740458015267,0.002316713333129883
157,0.01220703125,-0.0235595703125,0.865478515625,-0.732824427480916,-3.648854961832061,0.12213740458015267,0.002333402633666992
157,0.015869140625,-0.0252685546875,0.86767578125,-0.6946564885496184,-3.732824427480916,-0.0916030534351145,0.002316713333129883
157,0.0185546875,-0.0267333984375,0.858154296875,-0.6335877862595419,-4.015267175572519,0.061068702290076333,0.002317667007446289
157,0.018798828125,-0.0247802734375,0.864501953125,-0.7022900763358778,-3.9160305343511452,0.04580152671755725,0.002315044403076172
157,0.0185546875,-0.0257568359375,0.862548828125,-0.8015267175572519,-3.954198473282443,0.4732824427480916,0.0023162364959716797
157,0.02099609375,-0.0252685546875,0.868408203125,-0.8931297709923665,-3.6793893129770994,0.03816793893129771,0.0023157596588134766
157,0.016845703125,-0.0289306640625,0.870361328125,-0.6030534351145038,-3.8244274809160306,0.21374045801526717,0.002315998077392578
154,0.0185546875,-0.0238037109375,0.865966796875,-0.5801526717557252,-3.900763358778626,0.007633587786259542,0.002316713333129883
157,0.01416015625,-0.0294189453125,0.859619140625,-0.8778625954198473,-4.0,0.1984732824427481,0.002315521240234375
157,0.01953125,-0.0201416015625,0.861572265625,-0.7709923664122137,-3.648854961832061,0.0,0.0023255348205566406
157,0.016845703125,-0.0255126953125,0.864501953125,-0.6335877862595419,-3.717557251908397,0.030534351145038167,0.002314329147338867
155,0.01904296875,-0.0267333984375,0.859375,-0.8473282442748091,-3.7099236641221376,0.05343511450381679,0.0023164749145507812
157,0.016357421875,-0.0218505859375,0.864501953125,-0.7022900763358778,-3.6259541984732824,0.2595419847328244,0.002315521240234375
157,0.015869140625,-0.0299072265625,0.8623046875,-0.9465648854961832,-3.801526717557252,0.3282442748091603,0.0023164749145507812
158,0.01220703125,-0.0264892578125,0.85986328125,-0.8320610687022901,-3.8625954198473282,-0.04580152671755725,0.0023164749145507812
157,0.025390625,-0.0274658203125,0.8603515625,-0.8854961832061069,-3.732824427480916,0.22137404580152673,0.002315998077392578
158,0.02197265625,-0.0245361328125,0.859619140625,-0.8091603053435115,-3.7480916030534353,-0.007633587786259542,0.002315521240234375
158,0.01513671875,-0.0257568359375,0.863037109375,-0.9541984732824428,-3.9236641221374047,0.16030534351145037,0.0023164749145507812
157,0.01611328125,-0.0281982421875,0.866943359375,-0.6641221374045801,-3.9236641221374047,0.0,0.0023262500762939453
157,0.0166015625,-0.0294189453125,0.872802734375,-0.7862595419847328,-3.66412213740458,0.10687022900763359,0.0023157596588134766
157,0.019775390625,-0.0272216796875,0.86572265625,-0.6641221374045801,-3.618320610687023,0.10687022900763359,0.0023157596588134766
157,0.021484375,-0.0267333984375,0.8662109375,-0.6641221374045801,-3.8244274809160306,0.17557251908396945,0.0023169517517089844
157,0.015380859375,-0.0220947265625,0.862060546875,-0.6412213740458015,-3.7251908396946565,0.22900763358778625,0.002315044403076172
157,0.017333984375,-0.0311279296875,0.8681640625,-0.6259541984732825,-3.9236641221374047,0.030534351145038167,0.002317190170288086
157,0.0205078125,-0.0274658203125,0.872314453125,-0.6946564885496184,-3.282442748091603,0.09923664122137404,0.0023162364959716797
157,0.014892578125,-0.0262451171875,0.86572265625,-0.8549618320610687,-3.7709923664122136,0.04580152671755725,0.002315521240234375
158,0.015380859375,-0.0296630859375,0.85888671875,-0.8702290076335878,-3.7480916030534353,0.13740458015267176,0.002330780029296875
158,0.021484375,-0.0279541015625,0.864013671875,-0.8015267175572519,-3.8625954198473282,0.1297709923664122,0.002318859100341797
157,0.018798828125,-0.0252685546875,0.867919921875,-0.9541984732824428,-3.786259541984733,0.10687022900763359,0.002317667007446289
157,0.015869140625,-0.0313720703125,0.864990234375,-0.7404580152671756,-3.8091603053435112,0.0916030534351145,0.0023169517517089844
157,0.0185546875,-0.0284423828125,0.85986328125,-0.7251908396946565,-3.6946564885496183,0.24427480916030533,0.0023183822631835938
157,0.02099609375,-0.0289306640625,0.861328125,-0.816793893129771,-3.6717557251908395,0.16793893129770993,0.002355813980102539
156,0.017822265625,-0.0238037109375,0.859619140625,-0.8625954198473282,-3.7480916030534353,0.10687022900763359,0.002319812774658203
156,0.016845703125,-0.0262451171875,0.865234375,-0.6564885496183206,-3.9770992366412212,0.015267175572519083,0.002317667007446289
157,0.021240234375,-0.0230712890625,0.861572265625,-0.8931297709923665,-3.7480916030534353,0.31297709923664124,0.002317190170288086
156,0.0146484375,-0.0247802734375,0.8642578125,-0.7251908396946565,-3.6717557251908395,0.1450381679389313,0.0023164749145507812
157,0.010498046875,-0.0252685546875,0.857666015625,-0.7938931297709924,-4.0534351145038165,0.015267175572519083,0.0023157596588134766
157,0.0166015625,-0.0257568359375,0.862060546875,-0.6335877862595419,-3.618320610687023,0.16793893129770993,0.0023174285888671875
157,0.01806640625,-0.0279541015625,0.864990234375,-0.6412213740458015,-3.8396946564885495,0.07633587786259542,0.0023169517517089844
157,0.019775390625,-0.0250244140625,0.868408203125,-0.7022900763358778,-3.564885496183206,0.21374045801526717,0.0023157596588134766
157,0.01416015625,-0.0233154296875,0.8642578125,-0.9083969465648855,-3.7404580152671754,-0.07633587786259542,0.002330303192138672
156,0.0234375,-0.0274658203125,0.868896484375,-0.5038167938931297,-3.732824427480916,0.1984732824427481,0.0023164749145507812
156,0.01708984375,-0.0267333984375,0.865478515625,-0.6717557251908397,-3.7938931297709924,0.07633587786259542,0.002315998077392578
157,0.015380859375,-0.0267333984375,0.8662109375,-0.732824427480916,-4.022900763358779,0.08396946564885496,0.002315521240234375
157,0.0166015625,-0.0269775390625,0.8583984375,-0.816793893129771,-3.5419847328244276,0.061068702290076333,0.0023152828216552734
157,0.02197265625,-0.0272216796875,0.86328125,-0.7480916030534351,-3.969465648854962,0.20610687022900764,0.002544403076171875
153,0.0146484375,-0.0247802734375,0.85546875,-0.7862595419847328,-3.6946564885496183,0.05343511450381679,0.0023331642150878906
158,0.018310546875,-0.0235595703125,0.858154296875,-0.6564885496183206,-3.8702290076335877,0.16793893129770993,0.002318859100341797
157,0.01708984375,-0.0260009765625,0.86474609375,-0.6183206106870229,-3.7251908396946565,0.10687022900763359,0.002317667007446289
157,0.017822265625,-0.0233154296875,0.857666015625,-0.8473282442748091,-3.732824427480916,0.09923664122137404,0.002316713333129883
154,0.016357421875,-0.0284423828125,0.86328125,-0.9770992366412213,-3.7557251908396947,0.015267175572519083,0.0023169517517089844
157,0.013671875,-0.0289306640625,0.860107421875,-0.9083969465648855,-3.8396946564885495,0.05343511450381679,0.0023162364959716797
157,0.009521484375,-0.0281982421875,0.863037109375,-0.8091603053435115,-3.877862595419847,0.2824427480916031,0.002318143844604492
156,0.020263671875,-0.0284423828125,0.865966796875,-0.916030534351145,-3.6717557251908395,0.1984732824427481,0.002316713333129883
157,0.022216796875,-0.0303955078125,0.865966796875,-0.7022900763358778,-3.8625954198473282,-0.09923664122137404,0.0023174285888671875
156,0.014892578125,-0.0279541015625,0.8623046875,-0.7099236641221374,-4.00763358778626,0.08396946564885496,0.0023179054260253906
156,0.0205078125,-0.0260009765625,0.8603515625,-0.6183206106870229,-3.7480916030534353,0.015267175572519083,0.002317190170288086
156,0.014404296875,-0.0281982421875,0.872802734375,-0.48091603053435117,-3.7557251908396947,0.1450381679389313,0.0023305416107177734
156,0.017822265625,-0.0260009765625,0.8623046875,-0.7633587786259542,-4.083969465648855,0.16030534351145037,0.002321481704711914
152,0.018310546875,-0.0247802734375,0.860107421875,-0.6946564885496184,-3.595419847328244,-0.03816793893129771,0.0023174285888671875
156,0.019775390625,-0.0279541015625,0.8681640625,-0.732824427480916,-3.877862595419847,0.17557251908396945,0.002317190170288086
156,0.022216796875,-0.0250244140625,0.865234375,-0.549618320610687,-3.786259541984733,0.030534351145038167,0.0023164749145507812
156,0.015869140625,-0.0350341796875,0.860595703125,-0.5114503816793893,-3.8473282442748094,0.29770992366412213,0.002318143844604492
160,0.01904296875,-0.0223388671875,0.86279296875,-0.7786259541984732,-3.8473282442748094,0.015267175572519083,0.002315521240234375
155,0.0166015625,-0.0264892578125,0.863525390625,-0.7786259541984732,-3.7938931297709924,0.16030534351145037,0.0023174285888671875
157,0.01611328125,-0.0213623046875,0.861572265625,-0.816793893129771,-3.8625954198473282,-0.007633587786259542,0.002331256866455078
156,0.021728515625,-0.0260009765625,0.8681640625,-0.7099236641221374,-3.7404580152671754,0.007633587786259542,0.0023212432861328125
157,0.018798828125,-0.0255126953125,0.868408203125,-0.7633587786259542,-3.763358778625954,0.13740458015267176,0.002317667007446289
156,0.016357421875,-0.0260009765625,0.851318359375,-0.7557251908396947,-3.717557251908397,0.1984732824427481,0.0023174285888671875
156,0.01708984375,-0.0281982421875,0.86572265625,-0.6717557251908397,-3.854961832061069,0.24427480916030533,0.0023174285888671875
156,0.021484375,-0.0289306640625,0.865478515625,-0.7862595419847328,-3.801526717557252,0.33587786259541985,0.002316713333129883
155,0.013916015625,-0.0284423828125,0.867431640625,-0.8396946564885496,-3.7786259541984735,-0.030534351145038167,0.002316713333129883
156,0.0205078125,-0.0274658203125,0.87109375,-0.7862595419847328,-3.7557251908396947,-0.03816793893129771,0.0023224353790283203
157,0.021728515625,-0.0299072265625,0.860107421875,-0.8015267175572519,-3.8091603053435112,0.1450381679389313,0.0023174285888671875
156,0.025146484375,-0.0201416015625,0.855712890625,-0.9007633587786259,-3.83206106870229,0.2595419847328244,0.0023169517517089844
156,0.014404296875,-0.0264892578125,0.872314453125,-0.549618320610687,-3.900763358778626,0.183206106870229,0.002316713333129883
159,0.028564453125,-0.0252685546875,0.863037109375,-0.6717557251908397,-3.717557251908397,0.1297709923664122,0.0023169517517089844
156,0.01904296875,-0.0277099609375,0.87109375,-0.5801526717557252,-3.83206106870229,0.11450381679389313,0.002315521240234375
156,0.01513671875,-0.0213623046875,0.858154296875,-0.5877862595419847,-3.7709923664122136,0.16793893129770993,0.002316713333129883
156,0.015625,-0.0257568359375,0.860595703125,-0.6946564885496184,-3.8931297709923665,0.183206106870229,0.002340555191040039
168,0.020751953125,-0.0211181640625,0.852783203125,-0.5267175572519084,-3.7557251908396947,-0.09923664122137404,0.0024161338806152344
156,0.019775390625,-0.0321044921875,0.866455078125,-0.7404580152671756,-3.801526717557252,0.10687022900763359,0.002399921417236328
156,0.019775390625,-0.0260009765625,0.863525390625,-0.6946564885496184,-3.7404580152671754,0.007633587786259542,0.0024573802947998047
156,0.0126953125,-0.0211181640625,0.861328125,-0.5725190839694656,-3.9160305343511452,0.1297709923664122,0.002581357955932617
158,0.015869140625,-0.0289306640625,0.865478515625,-0.8854961832061069,-3.763358778625954,-0.07633587786259542,0.002344846725463867
