emg_0,emg_1,emg_2,emg_3,emg_4,acc_x,acc_y,acc_z,gyro_x,gyro_y,gyro_z,dt
171,0.0244140625,-0.0250244140625,0.865966796875,-0.8549618320610687,-3.83206106870229,0.12213740458015267,0.58547043800354
169,0.021240234375,-0.0357666015625,0.8583984375,-0.732824427480916,-4.030534351145038,0.17557251908396945,0.002521514892578125
169,0.020263671875,-0.0272216796875,0.863037109375,-0.5572519083969466,-3.9160305343511452,-0.06870229007633588,0.003452301025390625
168,0.019287109375,-0.0277099609375,0.869873046875,-0.5038167938931297,-3.816793893129771,0.1984732824427481,0.0024454593658447266
167,0.015380859375,-0.0279541015625,0.871337890625,-0.6870229007633588,-3.8244274809160306,0.12213740458015267,0.0025675296783447266
166,0.014892578125,-0.0269775390625,0.86474609375,-0.6106870229007634,-3.7022900763358777,0.030534351145038167,0.0026082992553710938
165,0.023681640625,-0.0306396484375,0.863525390625,-0.916030534351145,-3.7786259541984735,-0.0916030534351145,0.002566099166870117
159,0.018798828125,-0.0277099609375,0.85986328125,-1.1374045801526718,-3.816793893129771,0.09923664122137404,0.0024313926696777344
164,0.015380859375,-0.0343017578125,0.864013671875,-0.9465648854961832,-3.7022900763358777,0.09923664122137404,0.002405881881713867
164,0.01513671875,-0.0274658203125,0.854736328125,-0.9923664122137404,-3.9236641221374047,0.1984732824427481,0.0024590492248535156
162,0.01904296875,-0.0303955078125,0.854248046875,-0.8702290076335878,-3.7938931297709924,0.04580152671755725,0.0025877952575683594
163,0.01904296875,-0.0277099609375,0.8544921875,-0.6641221374045801,-3.877862595419847,-0.2748091603053435,0.002660989761352539
162,0.015869140625,-0.0301513671875,0.869873046875,-0.6259541984732825,-4.022900763358779,0.1450381679389313,0.002572298049926758
161,0.01904296875,-0.0262451171875,0.855712890625,-0.5648854961832062,-3.6412213740458017,0.007633587786259542,0.002467632293701172
160,0.01904296875,-0.0252685546875,0.86083984375,-0.5419847328244275,-3.66412213740458,0.12213740458015267,0.0024156570434570312
162,0.016357421875,-0.0345458984375,0.865478515625,-0.5419847328244275,-3.8091603053435112,0.07633587786259542,0.0024101734161376953
159,0.012451171875,-0.0225830078125,0.8642578125,-0.7175572519083969,-4.0,0.06870229007633588,0.002557992935180664
159,0.02001953125,-0.0284423828125,0.872802734375,-0.8396946564885496,-3.8625954198473282,0.1297709923664122,0.002611875534057617
159,0.013671875,-0.0294189453125,0.866455078125,-0.6793893129770993,-3.8931297709923665,0.015267175572519083,0.0025014877319335938
158,0.010009765625,-0.0338134765625,0.85595703125,-0.8015267175572519,-3.83206106870229,0.022900763358778626,0.002507925033569336
158,0.019775390625,-0.0245361328125,0.8662109375,-0.7633587786259542,-3.572519083969466,0.07633587786259542,0.0024607181549072266
158,0.0205078125,-0.0250244140625,0.85693359375,-0.7022900763358778,-3.9160305343511452,0.2595419847328244,0.0024323463439941406
157,0.02001953125,-0.0294189453125,0.863525390625,-0.5572519083969466,-3.885496183206107,-0.015267175572519083,0.002428293228149414
157,0.0185546875,-0.0343017578125,0.8642578125,-0.4351145038167939,-3.6259541984732824,-0.05343511450381679,0.0024864673614501953
156,0.014892578125,-0.0296630859375,0.86474609375,-0.48854961832061067,-3.7938931297709924,0.20610687022900764,0.002474069595336914
155,0.016845703125,-0.0264892578125,0.871337890625,-0.7633587786259542,-3.6793893129770994,0.0916030534351145,0.0024886131286621094
155,0.0126953125,-0.0252685546875,0.86279296875,-0.6870229007633588,-3.854961832061069,-0.04580152671755725,0.0024614334106445312
154,0.020263671875,-0.0264892578125,0.867919921875,-0.8625954198473282,-3.687022900763359,0.1297709923664122,0.0023441314697265625
154,0.0166015625,-0.0272216796875,0.861328125,-1.0,-3.885496183206107,0.13740458015267176,0.002398967742919922
154,0.0146484375,-0.0306396484375,0.865234375,-0.8473282442748091,-3.763358778625954,0.13740458015267176,0.0024309158325195312
154,0.020751953125,-0.0338134765625,0.870849609375,-0.9618320610687023,-3.801526717557252,0.061068702290076333,0.002393007278442383
155,0.017333984375,-0.0274658203125,0.856201171875,-0.4961832061068702,-3.8702290076335877,0.13740458015267176,0.0025141239166259766
154,0.017578125,-0.0367431640625,0.8681640625,-0.42748091603053434,-3.717557251908397,0.16030534351145037,0.0024111270904541016
153,0.022216796875,-0.0321044921875,0.86669921875,-0.5267175572519084,-3.6717557251908395,-0.022900763358778626,0.002499818801879883
153,0.01708984375,-0.0306396484375,0.866943359375,-0.4732824427480916,-3.801526717557252,0.030534351145038167,0.0024912357330322266
153,0.021240234375,-0.0281982421875,0.864990234375,-0.549618320610687,-3.816793893129771,0.24427480916030533,0.0025053024291992188
152,0.023681640625,-0.0296630859375,0.861572265625,-0.5954198473282443,-3.885496183206107,0.007633587786259542,0.002379894256591797
153,0.016357421875,-0.0213623046875,0.8564453125,-0.7862595419847328,-3.9160305343511452,-0.12213740458015267,0.0024802684783935547
152,0.01220703125,-0.0306396484375,0.861328125,-1.0,-3.854961832061069,0.21374045801526717,0.0024161338806152344
151,0.016845703125,-0.0247802734375,0.86669921875,-0.9389312977099237,-3.969465648854962,0.10687022900763359,0.002552032470703125
151,0.021240234375,-0.0262451171875,0.859130859375,-0.9618320610687023,-3.8702290076335877,0.22137404580152673,0.002446413040161133
151,0.020751953125,-0.0245361328125,0.860107421875,-0.7938931297709924,-3.885496183206107,0.09923664122137404,0.002469301223754883
150,0.01513671875,-0.0220947265625,0.86669921875,-0.6793893129770993,-3.66412213740458,0.061068702290076333,0.002379179000854492
150,0.0185546875,-0.0321044921875,0.863037109375,-0.6641221374045801,-3.66412213740458,0.183206106870229,0.002440214157104492
150,0.017333984375,-0.0323486328125,0.866943359375,-0.7557251908396947,-3.66412213740458,0.07633587786259542,0.0024404525756835938
149,0.017333984375,-0.0281982421875,0.87109375,-1.083969465648855,-3.7480916030534353,0.11450381679389313,0.002490520477294922
150,0.01904296875,-0.0264892578125,0.8642578125,-0.8244274809160306,-3.8396946564885495,0.13740458015267176,0.0023283958435058594
149,0.016357421875,-0.0294189453125,0.859619140625,-1.0,-3.7251908396946565,0.16030534351145037,0.0025620460510253906
149,0.017333984375,-0.0316162109375,0.864990234375,-1.1221374045801527,-3.786259541984733,0.09923664122137404,0.0024683475494384766
149,0.0078125,-0.0325927734375,0.873046875,-0.8015267175572519,-3.7557251908396947,0.2595419847328244,0.0026733875274658203
149,0.01416015625,-0.0301513671875,0.858154296875,-0.9541984732824428,-3.618320610687023,0.0,0.0025620460510253906
149,0.01318359375,-0.0316162109375,0.864990234375,-0.8015267175572519,-3.7251908396946565,0.26717557251908397,0.0023369789123535156
148,0.013427734375,-0.0262451171875,0.862060546875,-0.6564885496183206,-3.8702290076335877,0.03816793893129771,0.0023987293243408203
148,0.0146484375,-0.0323486328125,0.862548828125,-0.6183206106870229,-3.763358778625954,-0.022900763358778626,0.0025107860565185547
148,0.01220703125,-0.0274658203125,0.864013671875,-0.5648854961832062,-3.7480916030534353,0.07633587786259542,0.002321481704711914
147,0.017333984375,-0.0318603515625,0.865478515625,-0.7938931297709924,-3.9618320610687023,0.24427480916030533,0.0023157596588134766
147,0.0185546875,-0.0299072265625,0.85546875,-0.9236641221374046,-3.885496183206107,-0.03816793893129771,0.002315998077392578
147,0.01416015625,-0.0321044921875,0.85986328125,-0.648854961832061,-3.83206106870229,0.22900763358778625,0.0023152828216552734
147,0.01806640625,-0.0294189453125,0.857666015625,-0.9923664122137404,-3.8473282442748094,0.10687022900763359,0.002312898635864258
147,0.0185546875,-0.0267333984375,0.8583984375,-0.7251908396946565,-3.6564885496183206,0.12213740458015267,0.0023148059844970703
146,0.012939453125,-0.0286865234375,0.870361328125,-0.9923664122137404,-3.854961832061069,0.15267175572519084,0.002317190170288086
146,0.01806640625,-0.0360107421875,0.8583984375,-0.6183206106870229,-3.7404580152671754,0.0,0.002318859100341797
146,0.021240234375,-0.0318603515625,0.85498046875,-0.5801526717557252,-3.8931297709923665,-0.06870229007633588,0.0023200511932373047
145,0.0205078125,-0.0328369140625,0.860595703125,-0.549618320610687,-3.8396946564885495,0.12213740458015267,0.002496004104614258
146,0.0205078125,-0.0296630859375,0.86279296875,-0.5190839694656488,-3.8396946564885495,-0.015267175572519083,0.0023360252380371094
145,0.013427734375,-0.0279541015625,0.863037109375,-0.5801526717557252,-3.7709923664122136,0.17557251908396945,0.002321004867553711
145,0.02392578125,-0.0281982421875,0.869140625,-0.5877862595419847,-3.9236641221374047,0.21374045801526717,0.002478361129760742
145,0.01708984375,-0.0262451171875,0.865478515625,-0.6946564885496184,-3.83206106870229,-0.022900763358778626,0.00246429443359375
145,0.01171875,-0.0242919921875,0.865478515625,-0.6793893129770993,-3.854961832061069,-0.09923664122137404,0.0023763179779052734
145,0.01513671875,-0.0313720703125,0.862548828125,-0.8473282442748091,-3.6106870229007635,0.12213740458015267,0.002321481704711914
144,0.014404296875,-0.0279541015625,0.8515625,-0.7404580152671756,-3.7251908396946565,0.04580152671755725,0.002351045608520508
144,0.015625,-0.0306396484375,0.860595703125,-0.6335877862595419,-3.9083969465648853,0.10687022900763359,0.0023200511932373047
145,0.020263671875,-0.0294189453125,0.85791015625,-0.9007633587786259,-3.7709923664122136,0.0,0.002321958541870117
144,0.019287109375,-0.0301513671875,0.86474609375,-0.6183206106870229,-3.854961832061069,0.06870229007633588,0.0023179054260253906
145,0.013916015625,-0.0233154296875,0.855712890625,-0.7862595419847328,-3.7251908396946565,0.007633587786259542,0.0023190975189208984
145,0.01416015625,-0.0303955078125,0.86865234375,-0.6717557251908397,-3.83206106870229,0.03816793893129771,0.002318859100341797
144,0.021728515625,-0.0296630859375,0.85791015625,-0.7022900763358778,-3.9389312977099236,-0.015267175572519083,0.002318143844604492
146,0.025390625,-0.0291748046875,0.8603515625,-0.8702290076335878,-3.763358778625954,-0.022900763358778626,0.002318859100341797
145,0.019775390625,-0.0242919921875,0.866943359375,-0.7175572519083969,-3.633587786259542,-0.05343511450381679,0.0023174285888671875
144,0.017578125,-0.0306396484375,0.871337890625,-0.9694656488549618,-3.801526717557252,0.1297709923664122,0.0023174285888671875
144,0.009033203125,-0.0306396484375,0.86083984375,-0.6793893129770993,-3.8931297709923665,0.015267175572519083,0.0023179054260253906
147,0.019287109375,-0.0291748046875,0.86767578125,-0.6412213740458015,-3.717557251908397,-0.030534351145038167,0.0023186206817626953
144,0.0205078125,-0.0281982421875,0.866455078125,-0.648854961832061,-3.7480916030534353,0.24427480916030533,0.0023190975189208984
144,0.01904296875,-0.0274658203125,0.859130859375,-1.0229007633587786,-3.816793893129771,0.061068702290076333,0.002317667007446289
143,0.011474609375,-0.0269775390625,0.86279296875,-0.6412213740458015,-3.969465648854962,0.05343511450381679,0.0023179054260253906
143,0.015380859375,-0.0289306640625,0.858642578125,-0.6412213740458015,-3.66412213740458,0.05343511450381679,0.0023169517517089844
143,0.017333984375,-0.0262451171875,0.861083984375,-0.8854961832061069,-3.6946564885496183,0.030534351145038167,0.0023174285888671875
142,0.018798828125,-0.0279541015625,0.862060546875,-0.8702290076335878,-3.633587786259542,0.2366412213740458,0.0023179054260253906
143,0.018310546875,-0.0321044921875,0.864013671875,-0.9083969465648855,-3.66412213740458,0.15267175572519084,0.002317667007446289
143,0.009521484375,-0.0277099609375,0.860595703125,-1.015267175572519,-3.717557251908397,0.13740458015267176,0.002318143844604492
140,0.021240234375,-0.0299072265625,0.864501953125,-1.0076335877862594,-4.015267175572519,-0.08396946564885496,0.0023174285888671875
143,0.01416015625,-0.0281982421875,0.865478515625,-0.9770992366412213,-3.618320610687023,-0.04580152671755725,0.0023186206817626953
143,0.012939453125,-0.0347900390625,0.862060546875,-0.8473282442748091,-3.9389312977099236,0.2595419847328244,0.0023717880249023438
144,0.014892578125,-0.0340576171875,0.86181640625,-0.7557251908396947,-3.6717557251908395,-0.015267175572519083,0.0025751590728759766
142,0.01123046875,-0.0325927734375,0.864013671875,-0.7709923664122137,-3.7480916030534353,0.061068702290076333,0.002356290817260742
144,0.01416015625,-0.0362548828125,0.858642578125,-0.7022900763358778,-3.900763358778626,0.1984732824427481,0.002316713333129883
144,0.022705078125,-0.0333251953125,0.864013671875,-0.7022900763358778,-3.5801526717557253,0.3816793893129771,0.0023152828216552734
143,0.02197265625,-0.0284423828125,0.870361328125,-0.6106870229007634,-3.648854961832061,-0.09923664122137404,0.0023136138916015625
144,0.017578125,-0.0296630859375,0.861083984375,-0.6259541984732825,-3.6564885496183206,-0.007633587786259542,0.0023157596588134766
144,0.01953125,-0.0345458984375,0.864990234375,-0.6412213740458015,-3.8931297709923665,0.24427480916030533,0.002314329147338867
144,0.01806640625,-0.0303955078125,0.865966796875,-0.7251908396946565,-3.8702290076335877,0.11450381679389313,0.002319812774658203
144,0.013671875,-0.0323486328125,0.86669921875,-0.6030534351145038,-3.763358778625954,0.2366412213740458,0.0023202896118164062
144,0.017578125,-0.0255126953125,0.8671875,-0.8473282442748091,-3.877862595419847,0.26717557251908397,0.002315521240234375
144,0.019287109375,-0.0301513671875,0.863525390625,-0.6717557251908397,-4.022900763358779,0.015267175572519083,0.0023179054260253906
145,0.016845703125,-0.0269775390625,0.859130859375,-0.6259541984732825,-3.7099236641221376,0.007633587786259542,0.0023174285888671875
145,0.01513671875,-0.0294189453125,0.86474609375,-0.6564885496183206,-3.6030534351145036,0.26717557251908397,0.0023179054260253906
144,0.0126953125,-0.0308837890625,0.862060546875,-0.7175572519083969,-4.00763358778626,-0.015267175572519083,0.002331972122192383
143,0.01513671875,-0.0289306640625,0.86376953125,-0.7557251908396947,-3.648854961832061,0.10687022900763359,0.0023183822631835938
144,0.015869140625,-0.0347900390625,0.8642578125,-0.8702290076335878,-3.8396946564885495,0.15267175572519084,0.0023193359375
145,0.015625,-0.0277099609375,0.86279296875,-0.7709923664122137,-3.7099236641221376,0.007633587786259542,0.002317190170288086
145,0.014892578125,-0.0289306640625,0.857666015625,-0.9770992366412213,-3.6106870229007635,0.08396946564885496,0.002317667007446289
146,0.023193359375,-0.0299072265625,0.861328125,-0.6030534351145038,-3.7099236641221376,0.13740458015267176,0.002318143844604492
145,0.024658203125,-0.0284423828125,0.864990234375,-0.7786259541984732,-3.7557251908396947,0.19083969465648856,0.0023174285888671875
144,0.013916015625,-0.0274658203125,0.860595703125,-0.7633587786259542,-3.931297709923664,0.030534351145038167,0.002318859100341797
145,0.01708984375,-0.0230712890625,0.86572265625,-0.7175572519083969,-3.900763358778626,0.366412213740458,0.002317190170288086
144,0.0126953125,-0.0245361328125,0.85693359375,-0.4580152671755725,-3.885496183206107,0.0916030534351145,0.002317667007446289
147,0.01806640625,-0.0228271484375,0.870849609375,-0.5343511450381679,-3.6030534351145036,0.05343511450381679,0.0023169517517089844
145,0.01611328125,-0.0281982421875,0.864013671875,-0.648854961832061,-4.00763358778626,0.05343511450381679,0.0023179054260253906
145,0.0107421875,-0.0306396484375,0.870361328125,-0.5877862595419847,-3.5267175572519083,0.07633587786259542,0.002316713333129883
144,0.016845703125,-0.0286865234375,0.866455078125,-0.3969465648854962,-3.8625954198473282,0.10687022900763359,0.002317667007446289
143,0.017822265625,-0.0277099609375,0.858154296875,-0.6030534351145038,-3.877862595419847,0.08396946564885496,0.002318143844604492
145,0.01708984375,-0.0260009765625,0.862060546875,-0.549618320610687,-3.954198473282443,0.0916030534351145,0.002316713333129883
145,0.0205078125,-0.0228271484375,0.867919921875,-0.5725190839694656,-3.8625954198473282,-0.030534351145038167,0.002317667007446289
145,0.017822265625,-0.0242919921875,0.860595703125,-0.9083969465648855,-3.9770992366412212,0.20610687022900764,0.002317667007446289
146,0.01611328125,-0.0294189453125,0.865966796875,-0.648854961832061,-3.648854961832061,-0.04580152671755725,0.0023183822631835938
146,0.015625,-0.0284423828125,0.861083984375,-0.8778625954198473,-3.5877862595419847,0.061068702290076333,0.0023179054260253906
145,0.01953125,-0.0260009765625,0.865234375,-0.8625954198473282,-3.9389312977099236,0.12213740458015267,0.0024576187133789062
146,0.02099609375,-0.0323486328125,0.864990234375,-0.8473282442748091,-3.7709923664122136,0.015267175572519083,0.002343416213989258
146,0.020263671875,-0.0272216796875,0.85888671875,-0.9389312977099237,-4.038167938931298,0.007633587786259542,0.0023193359375
146,0.020263671875,-0.0247802734375,0.864501953125,-0.7786259541984732,-3.66412213740458,0.21374045801526717,0.002317667007446289
146,0.02099609375,-0.0279541015625,0.858154296875,-0.8473282442748091,-3.7786259541984735,-0.08396946564885496,0.002317190170288086
146,0.01171875,-0.0279541015625,0.857666015625,-0.8702290076335878,-3.6259541984732824,0.022900763358778626,0.0023186206817626953
146,0.021484375,-0.0267333984375,0.865966796875,-0.8320610687022901,-3.7557251908396947,0.07633587786259542,0.0023202896118164062
146,0.020263671875,-0.0303955078125,0.854248046875,-0.9923664122137404,-3.648854961832061,0.061068702290076333,0.002317190170288086
146,0.019287109375,-0.0279541015625,0.861083984375,-0.6946564885496184,-3.83206106870229,0.1297709923664122,0.0023186206817626953
147,0.02001953125,-0.0245361328125,0.86474609375,-0.7786259541984732,-3.786259541984733,0.3282442748091603,0.0023758411407470703
146,0.014892578125,-0.0360107421875,0.863037109375,-0.7251908396946565,-3.946564885496183,-0.022900763358778626,0.002496480941772461
145,0.017578125,-0.0321044921875,0.859619140625,-0.7709923664122137,-3.8931297709923665,-0.04580152671755725,0.002329111099243164
147,0.020751953125,-0.0291748046875,0.86572265625,-0.6946564885496184,-3.8473282442748094,0.25190839694656486,0.0023152828216552734
147,0.021484375,-0.0274658203125,0.875732421875,-0.7633587786259542,-3.786259541984733,-0.08396946564885496,0.002314329147338867
148,0.01806640625,-0.0255126953125,0.86865234375,-0.816793893129771,-3.786259541984733,0.12213740458015267,0.0023131370544433594
148,0.02001953125,-0.0360107421875,0.865966796875,-0.6870229007633588,-3.877862595419847,0.0916030534351145,0.002315044403076172
147,0.021240234375,-0.0367431640625,0.872802734375,-0.7022900763358778,-3.6793893129770994,-0.007633587786259542,0.0023136138916015625
148,0.020263671875,-0.0301513671875,0.862060546875,-0.7633587786259542,-3.885496183206107,0.13740458015267176,0.0023365020751953125
147,0.019287109375,-0.0240478515625,0.8662109375,-0.8549618320610687,-3.801526717557252,0.20610687022900764,0.0023195743560791016
147,0.02197265625,-0.0274658203125,0.8583984375,-0.7404580152671756,-3.763358778625954,0.3969465648854962,0.0023169517517089844
147,0.01904296875,-0.0330810546875,0.865234375,-0.6641221374045801,-3.8625954198473282,0.0,0.0023186206817626953
147,0.012939453125,-0.0311279296875,0.860107421875,-0.7786259541984732,-3.877862595419847,0.24427480916030533,0.0023164749145507812
148,0.008056640625,-0.0274658203125,0.865234375,-0.8549618320610687,-3.7938931297709924,0.11450381679389313,0.0023200511932373047
148,0.015869140625,-0.0308837890625,0.861328125,-0.5877862595419847,-3.816793893129771,0.061068702290076333,0.0023186206817626953
147,0.014404296875,-0.0289306640625,0.86279296875,-0.8854961832061069,-3.717557251908397,-0.007633587786259542,0.0023174285888671875
148,0.0146484375,-0.0267333984375,0.8662109375,-0.9007633587786259,-3.9083969465648853,0.21374045801526717,0.002332448959350586
149,0.017578125,-0.0303955078125,0.855224609375,-0.6946564885496184,-3.8473282442748094,-0.19083969465648856,0.0023283958435058594
148,0.0166015625,-0.0325927734375,0.86376953125,-0.6412213740458015,-3.572519083969466,0.11450381679389313,0.002320528030395508
150,0.015625,-0.0301513671875,0.869384765625,-0.6793893129770993,-3.8244274809160306,0.16793893129770993,0.002318143844604492
148,0.017333984375,-0.0306396484375,0.860595703125,-0.6412213740458015,-3.6106870229007635,0.007633587786259542,0.002315998077392578
148,0.018310546875,-0.0225830078125,0.87646484375,-0.7251908396946565,-3.6564885496183206,0.04580152671755725,0.0023164749145507812
148,0.02294921875,-0.0350341796875,0.8720703125,-0.5801526717557252,-3.816793893129771,0.1450381679389313,0.0023183822631835938
148,0.015380859375,-0.0267333984375,0.869384765625,-0.6946564885496184,-3.6717557251908395,-0.11450381679389313,0.0023186206817626953
148,0.02001953125,-0.0252685546875,0.85693359375,-0.6259541984732825,-3.9083969465648853,0.015267175572519083,0.0023195743560791016
149,0.016845703125,-0.0264892578125,0.865478515625,-0.7404580152671756,-4.022900763358779,0.09923664122137404,0.0023331642150878906
149,0.018798828125,-0.0269775390625,0.868408203125,-0.6183206106870229,-4.068702290076335,0.06870229007633588,0.0023186206817626953
149,0.015625,-0.0294189453125,0.870849609375,-0.6870229007633588,-3.786259541984733,0.1450381679389313,0.0023157596588134766
146,0.025634765625,-0.0318603515625,0.86572265625,-0.7557251908396947,-3.8931297709923665,-0.08396946564885496,0.002318859100341797
149,0.02392578125,-0.0252685546875,0.8671875,-0.8091603053435115,-3.7404580152671754,-0.07633587786259542,0.0023179054260253906
148,0.021728515625,-0.0345458984375,0.864501953125,-0.8473282442748091,-3.66412213740458,0.09923664122137404,0.0023174285888671875
149,0.02099609375,-0.0269775390625,0.864501953125,-0.7938931297709924,-3.6717557251908395,0.05343511450381679,0.0023174285888671875
149,0.019775390625,-0.0274658203125,0.85595703125,-0.7862595419847328,-3.8396946564885495,0.007633587786259542,0.0023179054260253906
149,0.017333984375,-0.0284423828125,0.865234375,-0.8625954198473282,-3.8244274809160306,0.2595419847328244,0.002318859100341797
149,0.020263671875,-0.0281982421875,0.863037109375,-0.8702290076335878,-3.6793893129770994,0.1297709923664122,0.0023164749145507812
149,0.016845703125,-0.0281982421875,0.864501953125,-0.7175572519083969,-3.8473282442748094,0.07633587786259542,0.0023183822631835938
149,0.017822265625,-0.0238037109375,0.869384765625,-0.6717557251908397,-3.66412213740458,0.1984732824427481,0.002318859100341797
150,0.01953125,-0.0301513671875,0.867431640625,-0.7709923664122137,-3.8625954198473282,-0.03816793893129771,0.0023174285888671875
150,0.02294921875,-0.0350341796875,0.858642578125,-0.6793893129770993,-3.801526717557252,0.20610687022900764,0.002332448959350586
150,0.0166015625,-0.0294189453125,0.86083984375,-0.6641221374045801,-3.6946564885496183,-0.022900763358778626,0.0023200511932373047
150,0.01171875,-0.0230712890625,0.86962890625,-0.6335877862595419,-3.83206106870229,-0.03816793893129771,0.002320528030395508
151,0.0205078125,-0.0225830078125,0.869140625,-0.6946564885496184,-3.877862595419847,0.10687022900763359,0.0023148059844970703
149,0.01953125,-0.0308837890625,0.866455078125,-0.6946564885496184,-4.061068702290076,0.08396946564885496,0.002317667007446289
150,0.017333984375,-0.0255126953125,0.8662109375,-0.7709923664122137,-3.7099236641221376,0.03816793893129771,0.0023818016052246094
150,0.0146484375,-0.0252685546875,0.860107421875,-0.6870229007633588,-3.8396946564885495,-0.16030534351145037,0.002462625503540039
152,0.020751953125,-0.0262451171875,0.85546875,-0.6870229007633588,-3.717557251908397,0.24427480916030533,0.002371072769165039
151,0.01904296875,-0.0294189453125,0.86181640625,-0.9389312977099237,-3.7709923664122136,0.31297709923664124,0.0023152828216552734
151,0.01513671875,-0.0306396484375,0.87060546875,-0.7862595419847328,-3.7404580152671754,-0.04580152671755725,0.002315044403076172
150,0.019287109375,-0.0306396484375,0.86083984375,-0.8931297709923665,-3.83206106870229,0.06870229007633588,0.002314329147338867
149,0.01416015625,-0.0294189453125,0.852783203125,-0.8778625954198473,-3.8091603053435112,0.35877862595419846,0.002335786819458008
151,0.0185546875,-0.0279541015625,0.857666015625,-0.732824427480916,-3.816793893129771,0.061068702290076333,0.0023169517517089844
151,0.0146484375,-0.0284423828125,0.8623046875,-0.8091603053435115,-3.877862595419847,0.015267175572519083,0.0023183822631835938
151,0.0166015625,-0.0274658203125,0.859130859375,-0.8549618320610687,-3.7480916030534353,0.1450381679389313,0.0023195743560791016
152,0.01953125,-0.0291748046875,0.87109375,-0.7404580152671756,-3.900763358778626,0.03816793893129771,0.0023164749145507812
152,0.014892578125,-0.0340576171875,0.868408203125,-0.6717557251908397,-3.900763358778626,0.04580152671755725,0.002478361129760742
151,0.019775390625,-0.0301513671875,0.868896484375,-0.6259541984732825,-3.7786259541984735,0.2748091603053435,0.0023305416107177734
152,0.0166015625,-0.0335693359375,0.86328125,-0.40458015267175573,-3.8702290076335877,0.0,0.0023200511932373047
152,0.01611328125,-0.0330810546875,0.8642578125,-0.6870229007633588,-3.6259541984732824,0.030534351145038167,0.002317190170288086
153,0.017578125,-0.0277099609375,0.86083984375,-0.48091603053435117,-3.6030534351145036,0.15267175572519084,0.0023179054260253906
152,0.021240234375,-0.0284423828125,0.86083984375,-0.6106870229007634,-3.8931297709923665,0.16030534351145037,0.002318143844604492
152,0.021240234375,-0.0335693359375,0.859375,-0.7786259541984732,-3.763358778625954,-0.007633587786259542,0.0023174285888671875
152,0.02001953125,-0.0343017578125,0.8642578125,-0.7557251908396947,-3.969465648854962,0.015267175572519083,0.0023958683013916016
152,0.01416015625,-0.0316162109375,0.865966796875,-0.7022900763358778,-3.7786259541984735,0.04580152671755725,0.0023217201232910156
153,0.022216796875,-0.0316162109375,0.861083984375,-0.5801526717557252,-3.6946564885496183,0.16793893129770993,0.0023179054260253906
152,0.01708984375,-0.0289306640625,0.864990234375,-0.7862595419847328,-3.7938931297709924,0.10687022900763359,0.0023431777954101562
153,0.015869140625,-0.0272216796875,0.859375,-0.7938931297709924,-3.7480916030534353,0.06870229007633588,0.002318859100341797
152,0.013427734375,-0.0269775390625,0.856689453125,-0.6106870229007634,-3.7404580152671754,0.21374045801526717,0.002318143844604492
153,0.016357421875,-0.0294189453125,0.863037109375,-0.8625954198473282,-3.7786259541984735,0.17557251908396945,0.002317667007446289
153,0.018798828125,-0.0281982421875,0.86767578125,-0.7404580152671756,-3.6564885496183206,0.007633587786259542,0.002318859100341797
153,0.017333984375,-0.0301513671875,0.866455078125,-0.8244274809160306,-3.7480916030534353,0.0,0.002318143844604492
153,0.019775390625,-0.0281982421875,0.86279296875,-0.6717557251908397,-3.786259541984733,0.08396946564885496,0.0023162364959716797
150,0.014404296875,-0.0294189453125,0.865478515625,-0.816793893129771,-3.8473282442748094,0.15267175572519084,0.0023179054260253906
153,0.0234375,-0.0311279296875,0.854736328125,-0.732824427480916,-3.7709923664122136,0.12213740458015267,0.002317667007446289
153,0.016845703125,-0.0255126953125,0.85400390625,-0.916030534351145,-3.7786259541984735,0.24427480916030533,0.0023169517517089844
154,0.021728515625,-0.0238037109375,0.8681640625,-0.549618320610687,-3.9389312977099236,0.07633587786259542,0.0023186206817626953
155,0.0166015625,-0.0250244140625,0.868896484375,-0.45038167938931295,-3.763358778625954,0.0,0.002316713333129883
153,0.01708984375,-0.0211181640625,0.870361328125,-0.5343511450381679,-3.954198473282443,0.07633587786259542,0.0023245811462402344
153,0.0146484375,-0.0269775390625,0.87060546875,-0.4198473282442748,-3.8244274809160306,0.13740458015267176,0.0023221969604492188
154,0.016845703125,-0.0299072265625,0.86181640625,-0.5801526717557252,-3.801526717557252,0.07633587786259542,0.0023195743560791016
155,0.01953125,-0.0235595703125,0.862548828125,-0.7862595419847328,-3.7480916030534353,0.0,0.0023200511932373047
154,0.01708984375,-0.0291748046875,0.864990234375,-0.7862595419847328,-3.6030534351145036,0.16793893129770993,0.002312898635864258
154,0.019287109375,-0.0330810546875,0.86669921875,-0.9007633587786259,-3.7251908396946565,0.04580152671755725,0.002315998077392578
154,0.021484375,-0.0289306640625,0.8662109375,-0.6259541984732825,-3.9236641221374047,0.061068702290076333,0.0023179054260253906
155,0.015380859375,-0.0345458984375,0.85888671875,-0.6946564885496184,-3.8091603053435112,0.15267175572519084,0.002318859100341797
155,0.019287109375,-0.0272216796875,0.865234375,-0.6335877862595419,-3.6793893129770994,0.04580152671755725,0.0023179054260253906
154,0.011474609375,-0.0272216796875,0.861572265625,-0.7251908396946565,-3.763358778625954,0.16030534351145037,0.0023174285888671875
154,0.016845703125,-0.0301513671875,0.863037109375,-0.5877862595419847,-3.885496183206107,0.13740458015267176,0.002412557601928711
155,0.013916015625,-0.0303955078125,0.8642578125,-0.816793893129771,-3.717557251908397,0.17557251908396945,0.0024390220642089844
157,0.01953125,-0.0296630859375,0.868896484375,-0.6946564885496184,-3.732824427480916,0.015267175572519083,0.0023267269134521484
155,0.01904296875,-0.0352783203125,0.86279296875,-0.916030534351145,-3.7557251908396947,0.16030534351145037,0.0023136138916015625
155,0.019287109375,-0.0240478515625,0.86669921875,-0.9389312977099237,-3.618320610687023,0.2595419847328244,0.0023145675659179688
155,0.018310546875,-0.0247802734375,0.862060546875,-0.8778625954198473,-3.8702290076335877,0.03816793893129771,0.0023140907287597656
156,0.018310546875,-0.0277099609375,0.863525390625,-0.8320610687022901,-4.129770992366412,0.19083969465648856,0.0023145675659179688
155,0.015625,-0.0374755859375,0.870361328125,-0.6641221374045801,-3.7099236641221376,0.022900763358778626,0.0023164749145507812
155,0.014892578125,-0.0242919921875,0.85791015625,-0.6946564885496184,-3.885496183206107,0.21374045801526717,0.002318859100341797
155,0.0185546875,-0.0281982421875,0.864501953125,-0.6335877862595419,-3.931297709923664,-0.06870229007633588,0.0023190975189208984
155,0.013671875,-0.0323486328125,0.87451171875,-0.5190839694656488,-3.8702290076335877,0.015267175572519083,0.002317190170288086
156,0.008544921875,-0.0338134765625,0.864013671875,-0.3435114503816794,-3.6412213740458017,-0.030534351145038167,0.0023179054260253906
156,0.020263671875,-0.0323486328125,0.856201171875,-0.6183206106870229,-3.8396946564885495,0.03816793893129771,0.0023190975189208984
156,0.01708984375,-0.0347900390625,0.860595703125,-0.9847328244274809,-3.7022900763358777,0.16030534351145037,0.002316713333129883
155,0.01416015625,-0.0252685546875,0.856689453125,-1.083969465648855,-3.7480916030534353,0.1984732824427481,0.002318143844604492
157,0.017333984375,-0.0294189453125,0.861328125,-1.1145038167938932,-3.687022900763359,0.03816793893129771,0.0023164749145507812
156,0.015380859375,-0.0313720703125,0.865478515625,-0.7557251908396947,-3.7557251908396947,0.06870229007633588,0.002317667007446289
156,0.022216796875,-0.0311279296875,0.866943359375,-0.9312977099236641,-3.8091603053435112,0.19083969465648856,0.002316713333129883
156,0.017333984375,-0.0343017578125,0.85888671875,-0.7786259541984732,-3.801526717557252,0.007633587786259542,0.0023183822631835938
165,0.021240234375,-0.0277099609375,0.857421875,-0.8244274809160306,-3.9770992366412212,0.061068702290076333,0.0023183822631835938
157,0.015625,-0.0316162109375,0.87158203125,-0.6412213740458015,-3.8091603053435112,0.22137404580152673,0.002316713333129883
157,0.01708984375,-0.0321044921875,0.875244140625,-0.44274809160305345,-3.7786259541984735,0.04580152671755725,0.002318143844604492
157,0.022216796875,-0.0355224609375,0.876953125,-0.22137404580152673,-3.687022900763359,0.03816793893129771,0.0023169517517089844
157,0.0166015625,-0.0284423828125,0.868408203125,-0.45038167938931295,-3.6259541984732824,0.17557251908396945,0.0023183822631835938
157,0.013916015625,-0.0216064453125,0.852294921875,-0.8473282442748091,-3.9236641221374047,0.16030534351145037,0.002317190170288086
157,0.01708984375,-0.0255126953125,0.857666015625,-1.0,-3.5877862595419847,0.061068702290076333,0.0023190975189208984
158,0.018310546875,-0.0245361328125,0.853515625,-1.3129770992366412,-3.946564885496183,0.16793893129770993,0.002317667007446289
157,0.024169921875,-0.0299072265625,0.865966796875,-0.9541984732824428,-3.6412213740458017,0.16030534351145037,0.002315998077392578
157,0.015869140625,-0.0294189453125,0.857666015625,-0.732824427480916,-3.8625954198473282,0.07633587786259542,0.0023183822631835938
157,0.0205078125,-0.0242919921875,0.86669921875,-0.4580152671755725,-3.900763358778626,0.19083969465648856,0.0023169517517089844
158,0.01904296875,-0.0308837890625,0.878173828125,-0.2824427480916031,-3.6793893129770994,0.04580152671755725,0.002317190170288086
158,0.02001953125,-0.0284423828125,0.862060546875,-0.2824427480916031,-4.0534351145038165,0.25190839694656486,0.002458810806274414
154,0.021728515625,-0.0257568359375,0.85986328125,-0.40458015267175573,-3.7786259541984735,0.0916030534351145,0.0023255348205566406
158,0.01708984375,-0.0252685546875,0.860107421875,-0.40458015267175573,-3.8244274809160306,0.21374045801526717,0.0023186206817626953
158,0.015380859375,-0.0260009765625,0.86767578125,-0.8396946564885496,-3.732824427480916,0.1450381679389313,0.0023179054260253906
158,0.01904296875,-0.0274658203125,0.86767578125,-1.2442748091603053,-3.7709923664122136,-0.007633587786259542,0.002317190170288086
158,0.017578125,-0.0279541015625,0.857421875,-1.2442748091603053,-3.854961832061069,-0.030534351145038167,0.0023195743560791016
159,0.01806640625,-0.0308837890625,0.861328125,-1.3587786259541985,-3.7404580152671754,0.16030534351145037,0.002318143844604492
158,0.0146484375,-0.0247802734375,0.85107421875,-1.0076335877862594,-4.236641221374046,-0.04580152671755725,0.0023186206817626953
159,0.019775390625,-0.0284423828125,0.862060546875,-0.7938931297709924,-3.7022900763358777,0.04580152671755725,0.002318143844604492
159,0.011962890625,-0.0277099609375,0.868408203125,-0.48854961832061067,-3.717557251908397,0.05343511450381679,0.0023179054260253906
159,0.018310546875,-0.0325927734375,0.87646484375,-0.2900763358778626,-3.8625954198473282,0.015267175572519083,0.0023179054260253906
159,0.01416015625,-0.0279541015625,0.87060546875,-0.183206106870229,-3.801526717557252,0.1450381679389313,0.002318143844604492
159,0.020263671875,-0.0291748046875,0.8681640625,-0.5267175572519084,-3.732824427480916,0.1450381679389313,0.002378702163696289
160,0.0205078125,-0.0279541015625,0.860595703125,-0.7557251908396947,-3.7786259541984735,0.16793893129770993,0.0024383068084716797
159,0.01806640625,-0.0291748046875,0.8662109375,-0.9770992366412213,-3.931297709923664,0.015267175572519083,0.002326488494873047
160,0.015625,-0.0284423828125,0.8466796875,-1.2061068702290076,-3.801526717557252,0.22137404580152673,0.0023136138916015625
161,0.029052734375,-0.0281982421875,0.86181640625,-1.4274809160305344,-3.801526717557252,0.10687022900763359,0.0023145675659179688
161,0.021240234375,-0.0264892578125,0.868408203125,-0.9312977099236641,-3.8625954198473282,0.0916030534351145,0.002314329147338867
163,0.014404296875,-0.0311279296875,0.863037109375,-0.8702290076335878,-3.8091603053435112,-0.17557251908396945,0.0023140907287597656
161,0.015625,-0.0286865234375,0.86572265625,-0.648854961832061,-3.8702290076335877,0.16793893129770993,0.0023179054260253906
160,0.0185546875,-0.0274658203125,0.86328125,-0.32061068702290074,-4.022900763358779,0.08396946564885496,0.002321481704711914
161,0.02001953125,-0.0347900390625,0.863525390625,-0.3511450381679389,-3.8473282442748094,0.0,0.0023179054260253906
161,0.015869140625,-0.0260009765625,0.864501953125,-0.3511450381679389,-3.8702290076335877,0.16793893129770993,0.0023164749145507812
160,0.0234375,-0.0272216796875,0.864013671875,-0.5801526717557252,-3.786259541984733,0.17557251908396945,0.0023186206817626953
161,0.025146484375,-0.0262451171875,0.864013671875,-0.7480916030534351,-3.7938931297709924,0.16793893129770993,0.0023179054260253906
161,0.010498046875,-0.0247802734375,0.864013671875,-1.0229007633587786,-3.8091603053435112,0.015267175572519083,0.002317190170288086
160,0.01318359375,-0.0272216796875,0.855712890625,-0.8778625954198473,-3.7938931297709924,0.31297709923664124,0.002318143844604492
154,0.015625,-0.0303955078125,0.870849609375,-1.1450381679389312,-3.8244274809160306,-0.08396946564885496,0.0023169517517089844
160,0.013671875,-0.0281982421875,0.85888671875,-0.9007633587786259,-3.7099236641221376,-0.015267175572519083,0.002318143844604492
160,0.023193359375,-0.0257568359375,0.8740234375,-0.5572519083969466,-3.7099236641221376,-0.03816793893129771,0.002317190170288086
161,0.01953125,-0.0257568359375,0.864990234375,-0.45038167938931295,-4.068702290076335,-0.022900763358778626,0.002317667007446289
160,0.0185546875,-0.0279541015625,0.866455078125,-0.3816793893129771,-3.6412213740458017,0.366412213740458,0.002317667007446289
161,0.014892578125,-0.0255126953125,0.87353515625,-0.33587786259541985,-3.946564885496183,0.015267175572519083,0.0023157596588134766
164,0.01416015625,-0.0296630859375,0.863525390625,-0.4122137404580153,-3.717557251908397,0.24427480916030533,0.003288745880126953
163,0.014892578125,-0.0260009765625,0.861328125,-0.7938931297709924,-4.00763358778626,0.183206106870229,0.0024721622467041016
157,0.009033203125,-0.0284423828125,0.869384765625,-0.9389312977099237,-3.816793893129771,0.0,0.002329111099243164
163,0.018310546875,-0.0284423828125,0.864990234375,-0.9770992366412213,-3.6946564885496183,0.183206106870229,0.0023698806762695312
163,0.015380859375,-0.0245361328125,0.862060546875,-0.8931297709923665,-3.816793893129771,0.07633587786259542,0.0023374557495117188
163,0.021484375,-0.0269775390625,0.861328125,-1.16793893129771,-3.8244274809160306,0.030534351145038167,0.0023224353790283203
164,0.014404296875,-0.0281982421875,0.861083984375,-0.8091603053435115,-4.030534351145038,0.1450381679389313,0.0023260116577148438
164,0.0146484375,-0.0311279296875,0.860595703125,-0.7099236641221374,-3.8702290076335877,0.0916030534351145,0.0023272037506103516
163,0.01953125,-0.0333251953125,0.86279296875,-0.6183206106870229,-3.931297709923664,0.0,0.0023229122161865234
163,0.013671875,-0.0333251953125,0.865234375,-0.5572519083969466,-3.9389312977099236,0.007633587786259542,0.0023179054260253906
164,0.021728515625,-0.0316162109375,0.867919921875,-0.4580152671755725,-3.564885496183206,0.16030534351145037,0.002321481704711914
164,0.022216796875,-0.0257568359375,0.868896484375,-0.5725190839694656,-3.8625954198473282,0.09923664122137404,0.002325296401977539
164,0.013671875,-0.0338134765625,0.866943359375,-0.732824427480916,-3.7938931297709924,-0.15267175572519084,0.0023193359375
165,0.02197265625,-0.0286865234375,0.85205078125,-0.6870229007633588,-3.6946564885496183,0.030534351145038167,0.0023193359375
165,0.0126953125,-0.0269775390625,0.859375,-0.9083969465648855,-3.83206106870229,-0.08396946564885496,0.002317667007446289
165,0.022705078125,-0.0291748046875,0.863037109375,-1.0763358778625953,-3.7099236641221376,0.2748091603053435,0.0023186206817626953
164,0.020263671875,-0.0352783203125,0.871826171875,-0.6793893129770993,-3.7251908396946565,0.007633587786259542,0.0023190975189208984
164,0.015625,-0.0277099609375,0.8603515625,-0.8778625954198473,-3.877862595419847,0.22900763358778625,0.0023193359375
165,0.017333984375,-0.0296630859375,0.863525390625,-0.6259541984732825,-3.732824427480916,0.0,0.0023183822631835938
163,0.0185546875,-0.0308837890625,0.86572265625,-0.6564885496183206,-3.5877862595419847,-0.007633587786259542,0.0023152828216552734
165,0.016357421875,-0.0240478515625,0.8623046875,-0.6183206106870229,-3.9770992366412212,0.007633587786259542,0.0023200511932373047
165,0.020263671875,-0.0296630859375,0.861572265625,-0.6259541984732825,-3.83206106870229,0.183206106870229,0.0023217201232910156
165,0.018310546875,-0.0286865234375,0.86572265625,-0.7022900763358778,-3.564885496183206,0.13740458015267176,0.0024957656860351562
163,0.01904296875,-0.0255126953125,0.865966796875,-0.7251908396946565,-3.8091603053435112,0.1984732824427481,0.0024862289428710938
164,0.0146484375,-0.0289306640625,0.859130859375,-0.9083969465648855,-3.6564885496183206,0.08396946564885496,0.002323627471923828
165,0.0185546875,-0.0286865234375,0.866943359375,-0.8015267175572519,-3.6412213740458017,-0.022900763358778626,0.002317667007446289
165,0.013671875,-0.0303955078125,0.862548828125,-1.0458015267175573,-3.7786259541984735,0.0916030534351145,0.002315521240234375
166,0.017822265625,-0.0311279296875,0.86328125,-0.9847328244274809,-3.816793893129771,0.0,0.0023157596588134766
166,0.020263671875,-0.0343017578125,0.863037109375,-0.7633587786259542,-3.984732824427481,0.09923664122137404,0.002313852310180664
165,0.015625,-0.0323486328125,0.860107421875,-0.816793893129771,-3.9083969465648853,0.0,0.002315521240234375
166,0.013671875,-0.0260009765625,0.86181640625,-0.48091603053435117,-3.8244274809160306,0.015267175572519083,0.0023162364959716797
165,0.015625,-0.0323486328125,0.867919921875,-0.45038167938931295,-3.7251908396946565,0.20610687022900764,0.0024683475494384766
166,0.010009765625,-0.0291748046875,0.872314453125,-0.6106870229007634,-3.9923664122137406,0.11450381679389313,0.0023326873779296875
165,0.015869140625,-0.0328369140625,0.857666015625,-0.5038167938931297,-3.7557251908396947,0.04580152671755725,0.002321004867553711
165,0.013916015625,-0.0318603515625,0.86181640625,-0.8091603053435115,-3.7480916030534353,0.1450381679389313,0.0024802684783935547
166,0.01611328125,-0.0257568359375,0.86962890625,-0.8320610687022901,-3.7022900763358777,0.05343511450381679,0.0023729801177978516
165,0.01611328125,-0.0286865234375,0.8662109375,-0.9389312977099237,-3.6412213740458017,0.24427480916030533,0.0023202896118164062
165,0.017578125,-0.0277099609375,0.854736328125,-1.1374045801526718,-3.8396946564885495,0.11450381679389313,0.0023212432861328125
166,0.011474609375,-0.0301513671875,0.865478515625,-0.8702290076335878,-3.9083969465648853,0.09923664122137404,0.002318859100341797
166,0.014892578125,-0.0311279296875,0.855712890625,-0.7175572519083969,-3.83206106870229,0.35877862595419846,0.002320528030395508
157,0.018310546875,-0.0306396484375,0.865234375,-0.6717557251908397,-3.687022900763359,-0.13740458015267176,0.002319812774658203
165,0.01416015625,-0.0294189453125,0.8623046875,-0.5343511450381679,-3.931297709923664,0.015267175572519083,0.002320528030395508
166,0.019775390625,-0.0301513671875,0.869873046875,-0.35877862595419846,-3.83206106870229,0.07633587786259542,0.0023193359375
165,0.0185546875,-0.0303955078125,0.864013671875,-0.9465648854961832,-3.633587786259542,0.15267175572519084,0.002318859100341797
166,0.01611328125,-0.0311279296875,0.861572265625,-0.5419847328244275,-3.9160305343511452,0.06870229007633588,0.0023190975189208984
166,0.01904296875,-0.0323486328125,0.863525390625,-0.8549618320610687,-3.7786259541984735,0.21374045801526717,0.002318143844604492
166,0.0185546875,-0.0264892578125,0.866455078125,-0.7480916030534351,-3.763358778625954,0.07633587786259542,0.002318859100341797
165,0.02294921875,-0.0303955078125,0.869140625,-1.1297709923664123,-3.8244274809160306,0.0,0.0023190975189208984
166,0.01806640625,-0.0299072265625,0.862548828125,-0.7175572519083969,-3.717557251908397,0.15267175572519084,0.0023179054260253906
164,0.01611328125,-0.0301513671875,0.866943359375,-0.8778625954198473,-3.7480916030534353,0.0916030534351145,0.0023233890533447266
165,0.020263671875,-0.0296630859375,0.864990234375,-0.549618320610687,-3.8244274809160306,0.03816793893129771,0.0023183822631835938
165,0.01904296875,-0.0260009765625,0.867919921875,-0.5038167938931297,-3.687022900763359,0.17557251908396945,0.0023190975189208984
165,0.02197265625,-0.0301513671875,0.861083984375,-0.5114503816793893,-3.6106870229007635,-0.015267175572519083,0.0023193359375
166,0.01904296875,-0.0264892578125,0.858154296875,-0.46564885496183206,-4.175572519083969,0.007633587786259542,0.0023183822631835938
166,0.018310546875,-0.0255126953125,0.863037109375,-0.5572519083969466,-3.5801526717557253,0.2366412213740458,0.0023190975189208984
165,0.01708984375,-0.0262451171875,0.864501953125,-0.6793893129770993,-3.7251908396946565,0.183206106870229,0.0023174285888671875
166,0.015869140625,-0.0306396484375,0.863037109375,-0.8015267175572519,-3.8702290076335877,-0.07633587786259542,0.0023195743560791016
166,0.025390625,-0.0323486328125,0.868408203125,-0.9389312977099237,-3.9083969465648853,0.07633587786259542,0.002318859100341797
166,0.021240234375,-0.0264892578125,0.862548828125,-0.732824427480916,-3.6106870229007635,0.16030534351145037,0.002318143844604492
166,0.013671875,-0.0262451171875,0.857666015625,-0.7938931297709924,-3.816793893129771,0.007633587786259542,0.0023190975189208984
167,0.02099609375,-0.0272216796875,0.860107421875,-0.8702290076335878,-3.931297709923664,0.11450381679389313,0.002318143844604492
166,0.019775390625,-0.0284423828125,0.8662109375,-0.6793893129770993,-3.7938931297709924,0.04580152671755725,0.0023193359375
167,0.017333984375,-0.0330810546875,0.861083984375,-0.7099236641221374,-3.8091603053435112,0.1984732824427481,0.0023169517517089844
167,0.02197265625,-0.0311279296875,0.853515625,-0.7099236641221374,-3.7786259541984735,0.2595419847328244,0.002318859100341797
167,0.015380859375,-0.0325927734375,0.864990234375,-0.5725190839694656,-3.8931297709923665,-0.04580152671755725,0.0023508071899414062
167,0.01611328125,-0.0301513671875,0.874755859375,-0.916030534351145,-3.717557251908397,0.11450381679389313,0.0025458335876464844
167,0.015869140625,-0.0196533203125,0.860107421875,-0.8854961832061069,-3.6717557251908395,0.04580152671755725,0.0024809837341308594
166,0.010498046875,-0.0225830078125,0.870849609375,-0.7022900763358778,-3.763358778625954,0.06870229007633588,0.002321004867553711
167,0.015380859375,-0.0303955078125,0.865478515625,-0.6030534351145038,-3.8473282442748094,0.12213740458015267,0.002317190170288086
167,0.01806640625,-0.0274658203125,0.856689453125,-0.9618320610687023,-3.7099236641221376,0.3511450381679389,0.0023148059844970703
171,0.01953125,-0.0303955078125,0.861328125,-0.816793893129771,-4.099236641221374,0.16030534351145037,0.002315521240234375
167,0.01904296875,-0.0284423828125,0.863525390625,-0.9618320610687023,-3.7938931297709924,0.22137404580152673,0.002314329147338867
167,0.011962890625,-0.0308837890625,0.866455078125,-0.5190839694656488,-3.763358778625954,0.007633587786259542,0.0023148059844970703
168,0.01318359375,-0.0260009765625,0.8671875,-0.7938931297709924,-3.9083969465648853,0.0916030534351145,0.0023186206817626953
168,0.021484375,-0.0308837890625,0.863037109375,-0.7099236641221374,-3.6106870229007635,0.061068702290076333,0.0023186206817626953
167,0.0166015625,-0.0306396484375,0.865234375,-0.6870229007633588,-3.7022900763358777,-0.04580152671755725,0.0023207664489746094
168,0.01953125,-0.0279541015625,0.8681640625,-0.7786259541984732,-3.7786259541984735,-0.05343511450381679,0.002317667007446289
167,0.016357421875,-0.0301513671875,0.864013671875,-0.9083969465648855,-3.83206106870229,0.03816793893129771,0.0023186206817626953
167,0.020751953125,-0.0335693359375,0.861083984375,-0.8015267175572519,-3.7938931297709924,0.2748091603053435,0.002318859100341797
166,0.016845703125,-0.0352783203125,0.859619140625,-0.9389312977099237,-3.8244274809160306,0.007633587786259542,0.0023183822631835938
168,0.020751953125,-0.0299072265625,0.860595703125,-0.7099236641221374,-3.8396946564885495,0.16030534351145037,0.0023190975189208984
168,0.01611328125,-0.0330810546875,0.86279296875,-0.6946564885496184,-3.984732824427481,0.0,0.002318143844604492
167,0.01904296875,-0.0311279296875,0.866943359375,-0.6870229007633588,-3.801526717557252,0.015267175572519083,0.0023174285888671875
168,0.0205078125,-0.0272216796875,0.871826171875,-0.6641221374045801,-3.7251908396946565,0.0,0.0023190975189208984
168,0.02001953125,-0.0291748046875,0.858154296875,-0.366412213740458,-3.969465648854962,0.44274809160305345,0.0023179054260253906
168,0.020263671875,-0.0279541015625,0.864013671875,-0.7557251908396947,-3.969465648854962,0.29770992366412213,0.0023183822631835938
168,0.01806640625,-0.0303955078125,0.85791015625,-0.7022900763358778,-3.7938931297709924,0.05343511450381679,0.002317667007446289
168,0.0234375,-0.0313720703125,0.862548828125,-0.6106870229007634,-3.5801526717557253,-0.13740458015267176,0.002317190170288086
168,0.02001953125,-0.0281982421875,0.857666015625,-0.8244274809160306,-3.969465648854962,0.10687022900763359,0.0023179054260253906
168,0.022216796875,-0.0284423828125,0.871337890625,-0.9541984732824428,-3.7251908396946565,0.0,0.0023186206817626953
168,0.01806640625,-0.0301513671875,0.861083984375,-0.8320610687022901,-3.8625954198473282,0.07633587786259542,0.002316713333129883
169,0.018798828125,-0.0255126953125,0.859375,-0.7786259541984732,-4.015267175572519,0.09923664122137404,0.002316713333129883
168,0.019775390625,-0.0286865234375,0.8525390625,-0.8854961832061069,-3.7480916030534353,0.183206106870229,0.0023174285888671875
169,0.02197265625,-0.0274658203125,0.860107421875,-0.6870229007633588,-3.7709923664122136,0.08396946564885496,0.0023179054260253906
174,0.01611328125,-0.0279541015625,0.865966796875,-0.8854961832061069,-3.4732824427480917,-0.030534351145038167,0.007577180862426758
175,0.0185546875,-0.0338134765625,0.859375,-0.6335877862595419,-3.732824427480916,0.061068702290076333,0.0023658275604248047
175,0.0126953125,-0.0294189453125,0.867431640625,-0.8549618320610687,-3.900763358778626,0.21374045801526717,0.002322673797607422
175,0.021240234375,-0.0279541015625,0.865478515625,-0.6335877862595419,-3.633587786259542,-0.08396946564885496,0.0023183822631835938
177,0.019287109375,-0.0303955078125,0.867431640625,-1.015267175572519,-3.7938931297709924,-0.022900763358778626,0.002318143844604492
175,0.01806640625,-0.0255126953125,0.865966796875,-0.8015267175572519,-3.7022900763358777,0.07633587786259542,0.002315998077392578
175,0.015380859375,-0.0252685546875,0.85693359375,-0.7022900763358778,-3.8244274809160306,-0.03816793893129771,0.002315998077392578
175,0.014404296875,-0.0228271484375,0.85888671875,-0.7404580152671756,-3.66412213740458,0.183206106870229,0.0023162364959716797
174,0.01611328125,-0.0338134765625,0.865234375,-0.5954198473282443,-3.885496183206107,-0.022900763358778626,0.002316713333129883
174,0.017578125,-0.0284423828125,0.867919921875,-0.7557251908396947,-3.8091603053435112,-0.022900763358778626,0.0023157596588134766
175,0.016357421875,-0.0277099609375,0.866455078125,-0.549618320610687,-3.885496183206107,0.12213740458015267,0.0023152828216552734
175,0.019287109375,-0.0340576171875,0.8544921875,-0.7862595419847328,-3.7404580152671754,0.13740458015267176,0.0023932456970214844
174,0.022705078125,-0.0284423828125,0.860595703125,-0.7709923664122137,-3.7709923664122136,0.06870229007633588,0.002543210983276367
173,0.02587890625,-0.0291748046875,0.865966796875,-0.9389312977099237,-3.6106870229007635,0.06870229007633588,0.0023794174194335938
174,0.012939453125,-0.0281982421875,0.873046875,-0.9312977099236641,-3.572519083969466,0.183206106870229,0.0023195743560791016
174,0.01708984375,-0.0284423828125,0.867919921875,-0.6870229007633588,-3.7251908396946565,0.061068702290076333,0.0023179054260253906
173,0.021728515625,-0.0345458984375,0.867919921875,-0.8702290076335878,-3.66412213740458,-0.03816793893129771,0.002318859100341797
173,0.023193359375,-0.0291748046875,0.867919921875,-0.8091603053435115,-3.946564885496183,0.20610687022900764,0.002351045608520508
173,0.022705078125,-0.0299072265625,0.8720703125,-0.732824427480916,-3.6717557251908395,-0.022900763358778626,0.0023202896118164062
173,0.01953125,-0.0289306640625,0.864990234375,-0.7175572519083969,-3.969465648854962,0.09923664122137404,0.002317667007446289
173,0.020751953125,-0.0279541015625,0.86474609375,-0.7938931297709924,-3.7786259541984735,0.061068702290076333,0.002316713333129883
173,0.01318359375,-0.0321044921875,0.868896484375,-0.6030534351145038,-4.106870229007634,0.10687022900763359,0.002317190170288086
173,0.0146484375,-0.0264892578125,0.85986328125,-0.7022900763358778,-3.83206106870229,-0.007633587786259542,0.002316713333129883
173,0.01611328125,-0.0364990234375,0.86181640625,-0.8396946564885496,-3.6106870229007635,0.061068702290076333,0.0023195743560791016
173,0.01318359375,-0.0289306640625,0.857421875,-0.6335877862595419,-3.7251908396946565,0.08396946564885496,0.0023148059844970703
173,0.01953125,-0.0296630859375,0.871337890625,-0.6259541984732825,-3.885496183206107,0.007633587786259542,0.002316713333129883
172,0.014892578125,-0.0223388671875,0.872314453125,-0.6717557251908397,-3.7557251908396947,0.3282442748091603,0.002315044403076172
172,0.015869140625,-0.0247802734375,0.861083984375,-0.7404580152671756,-3.969465648854962,0.05343511450381679,0.002315998077392578
171,0.021240234375,-0.0242919921875,0.857666015625,-0.648854961832061,-3.8625954198473282,-0.06870229007633588,0.0023157596588134766
172,0.016845703125,-0.0230712890625,0.870361328125,-0.732824427480916,-4.0458015267175576,0.25190839694656486,0.0023403167724609375
174,0.019775390625,-0.0272216796875,0.8623046875,-0.6717557251908397,-3.7099236641221376,0.2366412213740458,0.0023348331451416016
172,0.01416015625,-0.0277099609375,0.849853515625,-0.6106870229007634,-3.816793893129771,0.0,0.0023186206817626953
172,0.0087890625,-0.0279541015625,0.859619140625,-0.6335877862595419,-3.687022900763359,0.24427480916030533,0.002318143844604492
171,0.019287109375,-0.0267333984375,0.876953125,-0.7709923664122137,-3.8931297709923665,0.0,0.0023179054260253906
172,0.012939453125,-0.0299072265625,0.858154296875,-0.6793893129770993,-3.9160305343511452,0.0,0.0023093223571777344
172,0.008544921875,-0.0313720703125,0.86279296875,-0.5343511450381679,-3.648854961832061,0.10687022900763359,0.0023131370544433594
172,0.019287109375,-0.0267333984375,0.86328125,-0.9618320610687023,-3.7099236641221376,0.16030534351145037,0.0023169517517089844
172,0.014404296875,-0.0330810546875,0.859619140625,-0.37404580152671757,-3.6946564885496183,-0.022900763358778626,0.002315998077392578
172,0.018798828125,-0.0286865234375,0.869384765625,-1.1374045801526718,-3.687022900763359,0.22137404580152673,0.0023164749145507812
172,0.023681640625,-0.0228271484375,0.86572265625,-0.6717557251908397,-3.9770992366412212,0.0,0.002315998077392578
172,0.01904296875,-0.0345458984375,0.869384765625,-0.6564885496183206,-3.6793893129770994,-0.061068702290076333,0.002315044403076172
172,0.017333984375,-0.0274658203125,0.867431640625,-0.6183206106870229,-3.969465648854962,0.07633587786259542,0.002310514450073242
172,0.015380859375,-0.0284423828125,0.859619140625,-0.7709923664122137,-3.7709923664122136,0.09923664122137404,0.0023355484008789062
171,0.020263671875,-0.0296630859375,0.875,-0.8473282442748091,-3.786259541984733,0.17557251908396945,0.0023164749145507812
172,0.019287109375,-0.0306396484375,0.86083984375,-0.5801526717557252,-3.7709923664122136,0.007633587786259542,0.002315044403076172
172,0.0205078125,-0.0262451171875,0.86376953125,-0.732824427480916,-4.030534351145038,0.20610687022900764,0.0023145675659179688
171,0.02001953125,-0.0291748046875,0.851318359375,-0.7022900763358778,-3.687022900763359,-0.022900763358778626,0.0023148059844970703
179,0.014404296875,-0.0269775390625,0.86279296875,-0.5877862595419847,-3.7786259541984735,0.09923664122137404,0.0023162364959716797
171,0.019287109375,-0.0267333984375,0.861328125,-0.5343511450381679,-3.572519083969466,0.3053435114503817,0.002314329147338867
171,0.015869140625,-0.0281982421875,0.862060546875,-0.8396946564885496,-3.5343511450381677,0.1450381679389313,0.002315521240234375
171,0.0205078125,-0.0303955078125,0.860107421875,-0.8320610687022901,-3.9083969465648853,0.2595419847328244,0.0023162364959716797
172,0.0205078125,-0.0306396484375,0.854736328125,-0.8015267175572519,-3.8396946564885495,0.3435114503816794,0.0023145675659179688
170,0.02099609375,-0.0216064453125,0.86083984375,-0.816793893129771,-3.816793893129771,0.09923664122137404,0.0023140907287597656
170,0.013427734375,-0.0267333984375,0.856689453125,-0.8091603053435115,-3.8396946564885495,0.08396946564885496,0.002367258071899414
170,0.017578125,-0.0330810546875,0.8662109375,-0.7862595419847328,-3.9389312977099236,0.16030534351145037,0.002572774887084961
171,0.0205078125,-0.0316162109375,0.86328125,-0.5954198473282443,-3.8091603053435112,-0.05343511450381679,0.002535104751586914
171,0.0166015625,-0.0291748046875,0.87451171875,-0.6641221374045801,-3.786259541984733,0.25190839694656486,0.0023458003997802734
171,0.017333984375,-0.0299072265625,0.865966796875,-0.6412213740458015,-3.931297709923664,-0.15267175572519084,0.0023186206817626953
171,0.012451171875,-0.0345458984375,0.860595703125,-0.7022900763358778,-3.9389312977099236,0.05343511450381679,0.002317190170288086
171,0.02001953125,-0.0345458984375,0.866943359375,-0.5801526717557252,-3.7709923664122136,0.11450381679389313,0.0023179054260253906
167,0.014892578125,-0.0245361328125,0.865478515625,-0.6870229007633588,-3.519083969465649,0.11450381679389313,0.0023145675659179688
170,0.013916015625,-0.0281982421875,0.86083984375,-0.4580152671755725,-3.763358778625954,-0.030534351145038167,0.0023169517517089844
171,0.013671875,-0.0281982421875,0.862060546875,-0.7022900763358778,-3.7251908396946565,-0.007633587786259542,0.0023152828216552734
171,0.0185546875,-0.0284423828125,0.854736328125,-0.6870229007633588,-3.854961832061069,0.11450381679389313,0.0024819374084472656
170,0.01904296875,-0.0289306640625,0.857177734375,-0.7022900763358778,-3.6793893129770994,0.015267175572519083,0.002340555191040039
170,0.0205078125,-0.0289306640625,0.86474609375,-0.6870229007633588,-3.7709923664122136,0.24427480916030533,0.002317190170288086
170,0.017822265625,-0.0286865234375,0.858642578125,-0.7709923664122137,-3.7404580152671754,0.05343511450381679,0.002315998077392578
170,0.0166015625,-0.0242919921875,0.862548828125,-0.9465648854961832,-3.854961832061069,0.1297709923664122,0.0023148059844970703
171,0.016845703125,-0.0291748046875,0.85888671875,-0.816793893129771,-3.648854961832061,0.007633587786259542,0.002321481704711914
171,0.016357421875,-0.0281982421875,0.856689453125,-0.6183206106870229,-4.00763358778626,0.007633587786259542,0.002319812774658203
171,0.015380859375,-0.0267333984375,0.867431640625,-0.8702290076335878,-3.6946564885496183,0.0916030534351145,0.0023193359375
171,0.023193359375,-0.0272216796875,0.860595703125,-0.7404580152671756,-3.8473282442748094,0.25190839694656486,0.0023193359375
171,0.01904296875,-0.0308837890625,0.862060546875,-0.8549618320610687,-3.763358778625954,0.030534351145038167,0.002319812774658203
168,0.022216796875,-0.0262451171875,0.87158203125,-0.916030534351145,-3.854961832061069,-0.007633587786259542,0.002318859100341797
171,0.01806640625,-0.0284423828125,0.868896484375,-0.6335877862595419,-3.8702290076335877,0.06870229007633588,0.0023193359375
171,0.01806640625,-0.0291748046875,0.858642578125,-0.5877862595419847,-3.7557251908396947,0.26717557251908397,0.0023193359375
170,0.0166015625,-0.0242919921875,0.86181640625,-0.7251908396946565,-3.7709923664122136,0.1984732824427481,0.0023190975189208984
171,0.017822265625,-0.0316162109375,0.86669921875,-0.5954198473282443,-3.8244274809160306,0.007633587786259542,0.0023183822631835938
171,0.017822265625,-0.0318603515625,0.8671875,-0.6259541984732825,-3.7786259541984735,0.22900763358778625,0.0023190975189208984
171,0.0205078125,-0.0289306640625,0.8623046875,-0.8091603053435115,-3.6946564885496183,-0.015267175572519083,0.0023179054260253906
171,0.021484375,-0.0345458984375,0.86328125,-0.7099236641221374,-3.6946564885496183,0.3282442748091603,0.002318859100341797
172,0.016357421875,-0.0303955078125,0.864990234375,-0.7175572519083969,-3.8931297709923665,-0.007633587786259542,0.0023179054260253906
171,0.0166015625,-0.0299072265625,0.855712890625,-0.6793893129770993,-3.885496183206107,0.007633587786259542,0.0023179054260253906
171,0.020263671875,-0.0301513671875,0.866943359375,-0.7709923664122137,-3.595419847328244,-0.13740458015267176,0.0023179054260253906
171,0.02001953125,-0.0303955078125,0.869384765625,-0.9541984732824428,-3.9083969465648853,-0.030534351145038167,0.0023183822631835938
171,0.012451171875,-0.0318603515625,0.865966796875,-0.8778625954198473,-3.572519083969466,0.10687022900763359,0.0023186206817626953
171,0.02001953125,-0.0333251953125,0.857666015625,-0.6564885496183206,-3.6259541984732824,0.16030534351145037,0.002318859100341797
171,0.014404296875,-0.0303955078125,0.861328125,-0.6030534351145038,-3.83206106870229,0.015267175572519083,0.0023186206817626953
171,0.0166015625,-0.0301513671875,0.863525390625,-0.9541984732824428,-3.8702290076335877,0.21374045801526717,0.002318859100341797
171,0.019775390625,-0.0301513671875,0.85302734375,-0.8091603053435115,-3.786259541984733,0.11450381679389313,0.0023179054260253906
171,0.018310546875,-0.0272216796875,0.8603515625,-0.7633587786259542,-3.83206106870229,-0.11450381679389313,0.002318143844604492
171,0.018310546875,-0.0279541015625,0.871337890625,-0.7862595419847328,-3.801526717557252,0.0916030534351145,0.0023179054260253906
171,0.020263671875,-0.0262451171875,0.85986328125,-0.6946564885496184,-3.7557251908396947,0.1297709923664122,0.0023164749145507812
171,0.01904296875,-0.0272216796875,0.864013671875,-0.7251908396946565,-3.8702290076335877,0.030534351145038167,0.0023317337036132812
172,0.023681640625,-0.0260009765625,0.861328125,-0.7175572519083969,-3.5801526717557253,0.19083969465648856,0.0023195743560791016
171,0.0166015625,-0.0269775390625,0.869873046875,-0.5801526717557252,-3.801526717557252,0.11450381679389313,0.002321958541870117
172,0.019287109375,-0.0374755859375,0.86474609375,-0.5954198473282443,-3.7557251908396947,0.1450381679389313,0.0023169517517089844
170,0.016357421875,-0.0321044921875,0.874267578125,-0.8625954198473282,-3.8091603053435112,0.24427480916030533,0.0023813247680664062
171,0.01708984375,-0.0289306640625,0.863037109375,-0.7633587786259542,-3.900763358778626,0.03816793893129771,0.0024280548095703125
171,0.011474609375,-0.0318603515625,0.86181640625,-0.7633587786259542,-3.9618320610687023,0.29770992366412213,0.0023300647735595703
171,0.02783203125,-0.0323486328125,0.868896484375,-0.8015267175572519,-4.038167938931298,0.0916030534351145,0.0023202896118164062
171,0.016357421875,-0.0301513671875,0.85546875,-0.6335877862595419,-3.7938931297709924,0.03816793893129771,0.002317667007446289
171,0.0185546875,-0.0289306640625,0.870849609375,-0.8702290076335878,-3.7938931297709924,0.22900763358778625,0.0023179054260253906
172,0.013916015625,-0.0303955078125,0.86572265625,-0.9083969465648855,-3.7786259541984735,-0.11450381679389313,0.002317667007446289
171,0.01806640625,-0.0247802734375,0.868896484375,-0.7938931297709924,-3.816793893129771,0.1297709923664122,0.0023398399353027344
171,0.020263671875,-0.0330810546875,0.864990234375,-0.8854961832061069,-3.7099236641221376,0.07633587786259542,0.0023186206817626953
171,0.02392578125,-0.0338134765625,0.860595703125,-0.7938931297709924,-3.7557251908396947,0.20610687022900764,0.0023162364959716797
171,0.02099609375,-0.0360107421875,0.868896484375,-0.8854961832061069,-3.83206106870229,0.1297709923664122,0.0023393630981445312
171,0.00927734375,-0.0277099609375,0.8564453125,-0.8015267175572519,-3.8473282442748094,0.05343511450381679,0.0023229122161865234
171,0.013427734375,-0.0284423828125,0.869140625,-0.6870229007633588,-3.8091603053435112,0.0916030534351145,0.002319812774658203
171,0.01953125,-0.0301513671875,0.8642578125,-0.8625954198473282,-3.6946564885496183,0.4580152671755725,0.002318859100341797
170,0.017333984375,-0.0289306640625,0.866455078125,-0.5572519083969466,-3.648854961832061,-0.030534351145038167,0.0023183822631835938
171,0.0224609375,-0.0277099609375,0.87255859375,-0.8396946564885496,-3.732824427480916,-0.0916030534351145,0.0023200511932373047
171,0.019287109375,-0.0330810546875,0.861083984375,-0.7557251908396947,-3.8702290076335877,0.33587786259541985,0.0023183822631835938
171,0.02099609375,-0.0321044921875,0.86572265625,-0.6335877862595419,-3.7251908396946565,0.07633587786259542,0.0023179054260253906
171,0.02197265625,-0.0269775390625,0.869140625,-0.7709923664122137,-3.648854961832061,-0.13740458015267176,0.002317190170288086
171,0.017822265625,-0.0335693359375,0.85693359375,-0.9541984732824428,-4.00763358778626,0.29770992366412213,0.0023186206817626953
172,0.01904296875,-0.0284423828125,0.859130859375,-0.6335877862595419,-3.7557251908396947,0.06870229007633588,0.002336263656616211
171,0.01611328125,-0.0313720703125,0.865478515625,-0.7022900763358778,-4.015267175572519,-0.05343511450381679,0.0023190975189208984
171,0.0224609375,-0.0238037109375,0.861328125,-0.7175572519083969,-3.5877862595419847,0.21374045801526717,0.0023183822631835938
172,0.015869140625,-0.0286865234375,0.85302734375,-0.7251908396946565,-3.6030534351145036,0.11450381679389313,0.0023169517517089844
172,0.0185546875,-0.0291748046875,0.859130859375,-0.648854961832061,-3.7557251908396947,0.2366412213740458,0.002317190170288086
172,0.017822265625,-0.0240478515625,0.861083984375,-0.8396946564885496,-3.854961832061069,0.1984732824427481,0.0023174285888671875
172,0.017333984375,-0.0328369140625,0.859130859375,-0.8320610687022901,-3.786259541984733,0.1984732824427481,0.002317190170288086
172,0.022705078125,-0.0289306640625,0.864013671875,-0.7022900763358778,-3.7786259541984735,0.04580152671755725,0.002317667007446289
171,0.0185546875,-0.0333251953125,0.863037109375,-0.7022900763358778,-3.618320610687023,-0.030534351145038167,0.002317190170288086
172,0.018310546875,-0.0260009765625,0.860595703125,-0.816793893129771,-3.763358778625954,0.06870229007633588,0.0024695396423339844
172,0.014892578125,-0.0262451171875,0.87255859375,-0.732824427480916,-3.9389312977099236,0.015267175572519083,0.0024077892303466797
172,0.019287109375,-0.0301513671875,0.8603515625,-0.5877862595419847,-3.9160305343511452,0.1297709923664122,0.0023245811462402344
171,0.01904296875,-0.0286865234375,0.862548828125,-0.46564885496183206,-3.6793893129770994,0.04580152671755725,0.0023200511932373047
171,0.0244140625,-0.0338134765625,0.86181640625,-0.5572519083969466,-3.8473282442748094,0.183206106870229,0.0023193359375
172,0.017822265625,-0.0294189453125,0.862060546875,-0.732824427480916,-3.8473282442748094,0.007633587786259542,0.002328634262084961
171,0.02001953125,-0.0269775390625,0.864013671875,-0.7633587786259542,-3.687022900763359,0.04580152671755725,0.002317190170288086
173,0.016357421875,-0.0286865234375,0.864990234375,-0.6335877862595419,-3.7557251908396947,0.17557251908396945,0.0023183822631835938
171,0.0166015625,-0.0267333984375,0.87158203125,-0.8244274809160306,-3.854961832061069,0.1450381679389313,0.0023174285888671875
171,0.0166015625,-0.0223388671875,0.860107421875,-0.9083969465648855,-3.931297709923664,-0.015267175572519083,0.002318143844604492
171,0.015380859375,-0.0340576171875,0.866943359375,-0.6946564885496184,-3.6106870229007635,0.1450381679389313,0.002318859100341797
182,0.01611328125,-0.0323486328125,0.862060546875,-0.6793893129770993,-3.6259541984732824,0.16793893129770993,0.002317190170288086
172,0.01806640625,-0.0318603515625,0.8603515625,-0.7938931297709924,-3.9160305343511452,0.16030534351145037,0.0023183822631835938
171,0.019287109375,-0.0303955078125,0.86083984375,-0.732824427480916,-3.595419847328244,0.06870229007633588,0.0023179054260253906
172,0.01806640625,-0.0301513671875,0.86767578125,-0.8091603053435115,-3.969465648854962,0.06870229007633588,0.0023314952850341797
170,0.013916015625,-0.0347900390625,0.8603515625,-0.8396946564885496,-3.7404580152671754,0.13740458015267176,0.0023431777954101562
172,0.02001953125,-0.0296630859375,0.86474609375,-0.7862595419847328,-3.5877862595419847,-0.08396946564885496,0.002320528030395508
171,0.017333984375,-0.0269775390625,0.861083984375,-0.7633587786259542,-3.8091603053435112,0.04580152671755725,0.0023195743560791016
172,0.01806640625,-0.0274658203125,0.860595703125,-0.648854961832061,-4.030534351145038,0.007633587786259542,0.002316713333129883
171,0.023193359375,-0.0343017578125,0.865478515625,-0.8625954198473282,-3.6106870229007635,0.05343511450381679,0.002318143844604492
171,0.0224609375,-0.0306396484375,0.86474609375,-0.7786259541984732,-3.9083969465648853,0.10687022900763359,0.0023179054260253906
172,0.012939453125,-0.0369873046875,0.86669921875,-0.7099236641221374,-3.7938931297709924,0.17557251908396945,0.002317667007446289
172,0.014404296875,-0.0311279296875,0.8662109375,-0.6259541984732825,-3.984732824427481,0.1297709923664122,0.0023186206817626953
172,0.019775390625,-0.0303955078125,0.859619140625,-0.816793893129771,-3.801526717557252,0.17557251908396945,0.002317667007446289
172,0.020751953125,-0.0274658203125,0.86328125,-0.6335877862595419,-4.00763358778626,0.061068702290076333,0.002317667007446289
171,0.01318359375,-0.0308837890625,0.85546875,-0.8396946564885496,-3.8244274809160306,0.19083969465648856,0.002317190170288086
172,0.021728515625,-0.0323486328125,0.865966796875,-0.6641221374045801,-3.6793893129770994,0.09923664122137404,0.002317667007446289
171,0.0166015625,-0.0277099609375,0.86083984375,-0.6335877862595419,-3.7709923664122136,0.061068702290076333,0.0023174285888671875
163,0.0185546875,-0.0272216796875,0.86328125,-0.7709923664122137,-3.7404580152671754,0.1450381679389313,0.002318143844604492
172,0.015625,-0.0321044921875,0.85302734375,-0.6030534351145038,-4.00763358778626,-0.06870229007633588,0.002317667007446289
172,0.020751953125,-0.0308837890625,0.869384765625,-0.6793893129770993,-3.8702290076335877,0.21374045801526717,0.0023179054260253906
172,0.017333984375,-0.0281982421875,0.857177734375,-0.7404580152671756,-3.717557251908397,0.061068702290076333,0.0023186206817626953
173,0.015869140625,-0.0296630859375,0.860107421875,-0.9007633587786259,-3.9083969465648853,0.16793893129770993,0.002317667007446289
172,0.009521484375,-0.0350341796875,0.85498046875,-0.7862595419847328,-3.7480916030534353,0.06870229007633588,0.0023179054260253906
171,0.0185546875,-0.0325927734375,0.858154296875,-0.7022900763358778,-3.801526717557252,0.0,0.002318859100341797
171,0.017578125,-0.0223388671875,0.85986328125,-0.7862595419847328,-3.66412213740458,-0.07633587786259542,0.002315521240234375
172,0.009521484375,-0.0284423828125,0.860107421875,-0.8091603053435115,-3.9389312977099236,0.09923664122137404,0.0023183822631835938
172,0.018310546875,-0.0316162109375,0.87353515625,-0.8473282442748091,-3.732824427480916,0.05343511450381679,0.002318143844604492
172,0.01953125,-0.0308837890625,0.857421875,-0.648854961832061,-3.8931297709923665,0.09923664122137404,0.002317667007446289
171,0.018798828125,-0.0333251953125,0.867431640625,-0.6717557251908397,-3.8473282442748094,0.09923664122137404,0.002317190170288086
171,0.01611328125,-0.0301513671875,0.85986328125,-0.6412213740458015,-3.7557251908396947,0.09923664122137404,0.0023186206817626953
168,0.01611328125,-0.0281982421875,0.861328125,-0.648854961832061,-4.114503816793893,0.21374045801526717,0.002318143844604492
171,0.02001953125,-0.0347900390625,0.864990234375,-0.7862595419847328,-3.648854961832061,0.07633587786259542,0.0023164749145507812
171,0.019287109375,-0.0303955078125,0.858642578125,-0.6335877862595419,-3.7557251908396947,0.16793893129770993,0.0023174285888671875
171,0.021728515625,-0.0257568359375,0.865478515625,-0.648854961832061,-3.854961832061069,0.19083969465648856,0.0023345947265625
171,0.01416015625,-0.0279541015625,0.8642578125,-0.5801526717557252,-3.877862595419847,-0.1297709923664122,0.002335786819458008
171,0.02978515625,-0.0247802734375,0.862060546875,-0.8473282442748091,-3.8702290076335877,0.3435114503816794,0.002321004867553711
171,0.015380859375,-0.0360107421875,0.864990234375,-0.6946564885496184,-3.8244274809160306,0.183206106870229,0.0023186206817626953
172,0.021240234375,-0.0286865234375,0.86767578125,-0.8931297709923665,-3.633587786259542,0.40458015267175573,0.0023193359375
171,0.017822265625,-0.0303955078125,0.864013671875,-0.8854961832061069,-3.763358778625954,0.061068702290076333,0.002317190170288086
173,0.0126953125,-0.0286865234375,0.861572265625,-0.7557251908396947,-3.854961832061069,0.183206106870229,0.0023193359375
172,0.021484375,-0.0325927734375,0.872314453125,-0.8091603053435115,-3.8702290076335877,-0.0916030534351145,0.002317190170288086
171,0.012451171875,-0.0284423828125,0.847900390625,-0.6717557251908397,-3.7557251908396947,0.3816793893129771,0.002318143844604492
171,0.0205078125,-0.0294189453125,0.867431640625,-0.7251908396946565,-3.8091603053435112,0.11450381679389313,0.0023190975189208984
171,0.020263671875,-0.0379638671875,0.863037109375,-0.7251908396946565,-4.022900763358779,0.17557251908396945,0.0023190975189208984
172,0.0146484375,-0.0325927734375,0.872802734375,-0.648854961832061,-3.6946564885496183,0.061068702290076333,0.0023183822631835938
172,0.02197265625,-0.0272216796875,0.86376953125,-0.6335877862595419,-3.7938931297709924,0.06870229007633588,0.0023179054260253906
171,0.023193359375,-0.0325927734375,0.86865234375,-0.6412213740458015,-3.6793893129770994,0.12213740458015267,0.002318143844604492
171,0.017822265625,-0.0321044921875,0.869140625,-0.6870229007633588,-3.83206106870229,0.022900763358778626,0.0023179054260253906
171,0.01806640625,-0.0279541015625,0.85595703125,-0.6106870229007634,-3.885496183206107,0.1297709923664122,0.0023179054260253906
171,0.0185546875,-0.0372314453125,0.86474609375,-0.7557251908396947,-3.7251908396946565,0.08396946564885496,0.0023195743560791016
171,0.01953125,-0.0289306640625,0.863525390625,-0.6183206106870229,-3.9770992366412212,0.0,0.002317190170288086
171,0.017333984375,-0.0252685546875,0.866943359375,-0.7404580152671756,-3.7404580152671754,0.183206106870229,0.0023157596588134766
173,0.016357421875,-0.0281982421875,0.859619140625,-0.9847328244274809,-3.8244274809160306,0.2748091603053435,0.002442598342895508
171,0.013671875,-0.0306396484375,0.859375,-0.8244274809160306,-3.885496183206107,0.08396946564885496,0.002338886260986328
172,0.017822265625,-0.0260009765625,0.86083984375,-0.8320610687022901,-3.5801526717557253,0.0,0.0023217201232910156
172,0.0166015625,-0.0269775390625,0.864013671875,-0.7022900763358778,-3.7251908396946565,0.19083969465648856,0.002318143844604492
181,0.016845703125,-0.0299072265625,0.86376953125,-0.7633587786259542,-3.877862595419847,0.25190839694656486,0.002319812774658203
172,0.0185546875,-0.0257568359375,0.866943359375,-0.8854961832061069,-3.6412213740458017,0.09923664122137404,0.0023183822631835938
172,0.018798828125,-0.0267333984375,0.860595703125,-0.6259541984732825,-3.885496183206107,0.20610687022900764,0.0023186206817626953
172,0.016845703125,-0.0250244140625,0.8486328125,-0.9389312977099237,-3.7480916030534353,0.16030534351145037,0.0023179054260253906
171,0.01806640625,-0.0301513671875,0.864990234375,-0.7862595419847328,-3.786259541984733,0.16793893129770993,0.002318859100341797
172,0.01611328125,-0.0303955078125,0.868408203125,-0.6641221374045801,-3.885496183206107,-0.05343511450381679,0.0023193359375
172,0.01708984375,-0.0281982421875,0.865478515625,-0.6641221374045801,-3.5877862595419847,0.17557251908396945,0.0023169517517089844
172,0.012451171875,-0.0284423828125,0.864990234375,-0.6335877862595419,-3.9083969465648853,0.08396946564885496,0.0023179054260253906
172,0.01953125,-0.0267333984375,0.86328125,-0.5877862595419847,-3.5419847328244276,0.0,0.002318143844604492
172,0.02099609375,-0.0313720703125,0.8720703125,-0.6412213740458015,-3.900763358778626,0.17557251908396945,0.002315998077392578
172,0.0166015625,-0.0308837890625,0.85595703125,-0.6106870229007634,-3.7938931297709924,-0.0916030534351145,0.0023186206817626953
172,0.017822265625,-0.0260009765625,0.871826171875,-0.8931297709923665,-3.687022900763359,0.061068702290076333,0.002318143844604492
172,0.0146484375,-0.0296630859375,0.868896484375,-0.6717557251908397,-3.5572519083969465,-0.16793893129770993,0.0023186206817626953
172,0.023193359375,-0.0264892578125,0.859375,-0.6870229007633588,-3.801526717557252,0.007633587786259542,0.002318143844604492
172,0.02294921875,-0.0308837890625,0.85693359375,-0.7404580152671756,-3.763358778625954,0.05343511450381679,0.002318143844604492
172,0.015625,-0.0318603515625,0.865234375,-0.6870229007633588,-4.00763358778626,0.1297709923664122,0.002316713333129883
171,0.01904296875,-0.0311279296875,0.8603515625,-0.9389312977099237,-3.7786259541984735,0.10687022900763359,0.0023179054260253906
172,0.015625,-0.0267333984375,0.8623046875,-0.648854961832061,-3.717557251908397,0.2748091603053435,0.0023179054260253906
172,0.018798828125,-0.0316162109375,0.8583984375,-0.916030534351145,-3.8244274809160306,-0.10687022900763359,0.0023195743560791016
172,0.0234375,-0.0306396484375,0.859619140625,-0.8473282442748091,-3.9083969465648853,0.06870229007633588,0.0023179054260253906
173,0.02001953125,-0.0306396484375,0.8603515625,-0.7404580152671756,-3.7480916030534353,-0.08396946564885496,0.0023169517517089844
172,0.017333984375,-0.0267333984375,0.864013671875,-0.6641221374045801,-3.816793893129771,0.16793893129770993,0.002318859100341797
173,0.022216796875,-0.0318603515625,0.871337890625,-0.7557251908396947,-3.717557251908397,0.20610687022900764,0.0023665428161621094
172,0.016357421875,-0.0260009765625,0.87255859375,-0.7786259541984732,-3.7099236641221376,-0.0916030534351145,0.0023207664489746094
173,0.02001953125,-0.0247802734375,0.8662109375,-0.6183206106870229,-3.885496183206107,0.06870229007633588,0.002318859100341797
173,0.016845703125,-0.0264892578125,0.870849609375,-0.4732824427480916,-3.732824427480916,0.33587786259541985,0.0023169517517089844
170,0.009521484375,-0.0277099609375,0.862060546875,-0.7862595419847328,-4.0534351145038165,0.007633587786259542,0.002317667007446289
173,0.01953125,-0.0303955078125,0.8603515625,-0.549618320610687,-3.9389312977099236,0.29770992366412213,0.0023183822631835938
174,0.01904296875,-0.0321044921875,0.87060546875,-0.5190839694656488,-3.7938931297709924,0.08396946564885496,0.0023174285888671875
172,0.015625,-0.0284423828125,0.863037109375,-0.6335877862595419,-4.015267175572519,0.11450381679389313,0.0023195743560791016
178,0.018798828125,-0.0257568359375,0.862548828125,-0.7938931297709924,-3.786259541984733,0.007633587786259542,0.0023157596588134766
174,0.01953125,-0.0267333984375,0.8603515625,-0.7709923664122137,-3.900763358778626,0.13740458015267176,0.0023174285888671875
174,0.017822265625,-0.0289306640625,0.864013671875,-0.8473282442748091,-3.717557251908397,0.1450381679389313,0.0023162364959716797
174,0.0166015625,-0.0223388671875,0.869140625,-0.8702290076335878,-3.8091603053435112,0.11450381679389313,0.002317190170288086
174,0.014892578125,-0.0318603515625,0.8564453125,-0.8015267175572519,-3.801526717557252,0.11450381679389313,0.0023169517517089844
173,0.02099609375,-0.0350341796875,0.8701171875,-0.8320610687022901,-3.6412213740458017,0.21374045801526717,0.002317667007446289
173,0.01904296875,-0.0308837890625,0.858642578125,-0.9007633587786259,-3.816793893129771,-0.05343511450381679,0.0023174285888671875
174,0.023193359375,-0.0274658203125,0.8623046875,-0.5877862595419847,-3.8473282442748094,0.25190839694656486,0.0023169517517089844
174,0.017333984375,-0.0338134765625,0.869873046875,-0.6106870229007634,-3.6946564885496183,0.030534351145038167,0.002317190170288086
174,0.021240234375,-0.0330810546875,0.85791015625,-0.7175572519083969,-3.9236641221374047,0.2366412213740458,0.002317190170288086
174,0.015869140625,-0.0284423828125,0.859375,-0.9007633587786259,-3.8625954198473282,0.16030534351145037,0.002327442169189453
174,0.016357421875,-0.0340576171875,0.860107421875,-0.816793893129771,-3.8396946564885495,0.16793893129770993,0.0023200511932373047
173,0.018310546875,-0.0340576171875,0.865966796875,-0.6793893129770993,-3.8091603053435112,0.0,0.002318143844604492
173,0.022705078125,-0.0242919921875,0.857666015625,-0.7175572519083969,-3.648854961832061,0.030534351145038167,0.002315521240234375
173,0.017822265625,-0.0289306640625,0.860107421875,-0.6412213740458015,-3.763358778625954,-0.07633587786259542,0.002364635467529297
174,0.015625,-0.0313720703125,0.869873046875,-0.6335877862595419,-3.8702290076335877,0.030534351145038167,0.0023310184478759766
173,0.0185546875,-0.0269775390625,0.861572265625,-0.549618320610687,-3.8244274809160306,0.0916030534351145,0.002319812774658203
172,0.012939453125,-0.0260009765625,0.861572265625,-0.8320610687022901,-3.83206106870229,-0.022900763358778626,0.0023183822631835938
173,0.021240234375,-0.0291748046875,0.880126953125,-0.7633587786259542,-3.7938931297709924,-0.07633587786259542,0.0023200511932373047
173,0.014892578125,-0.0318603515625,0.86181640625,-0.7251908396946565,-3.6412213740458017,0.17557251908396945,0.0023179054260253906
172,0.013916015625,-0.0284423828125,0.85888671875,-0.6183206106870229,-4.0534351145038165,0.19083969465648856,0.0023183822631835938
172,0.019775390625,-0.0343017578125,0.88037109375,-0.9312977099236641,-3.7099236641221376,0.17557251908396945,0.0023190975189208984
171,0.015869140625,-0.0289306640625,0.85986328125,-0.7175572519083969,-4.0458015267175576,0.0916030534351145,0.002318859100341797
171,0.010009765625,-0.0198974609375,0.85107421875,-0.8396946564885496,-3.648854961832061,-0.030534351145038167,0.002318143844604492
171,0.016357421875,-0.0294189453125,0.872314453125,-0.732824427480916,-3.7786259541984735,0.33587786259541985,0.0023179054260253906
171,0.0146484375,-0.0240478515625,0.8515625,-0.7862595419847328,-3.984732824427481,0.022900763358778626,0.0023183822631835938
173,0.021728515625,-0.0303955078125,0.863037109375,-0.816793893129771,-3.8473282442748094,0.0916030534351145,0.002317190170288086
170,0.0185546875,-0.0321044921875,0.871826171875,-0.8854961832061069,-3.6717557251908395,0.05343511450381679,0.002317667007446289
170,0.020751953125,-0.0311279296875,0.859619140625,-0.5419847328244275,-3.7022900763358777,0.0,0.002316713333129883
170,0.015380859375,-0.0325927734375,0.871826171875,-0.8320610687022901,-3.7709923664122136,0.061068702290076333,0.002316713333129883
171,0.021240234375,-0.0269775390625,0.86962890625,-0.7786259541984732,-3.732824427480916,0.13740458015267176,0.0025522708892822266
170,0.0185546875,-0.0316162109375,0.851318359375,-0.549618320610687,-3.8702290076335877,0.03816793893129771,0.0023365020751953125
170,0.0205078125,-0.0281982421875,0.87255859375,-0.7938931297709924,-3.8473282442748094,0.13740458015267176,0.0023202896118164062
169,0.015380859375,-0.0274658203125,0.861328125,-0.7786259541984732,-3.572519083969466,-0.030534351145038167,0.002318859100341797
169,0.01123046875,-0.0313720703125,0.8603515625,-0.5572519083969466,-4.022900763358779,-0.03816793893129771,0.0023183822631835938
169,0.01513671875,-0.0296630859375,0.865478515625,-0.6717557251908397,-3.7709923664122136,0.3053435114503817,0.0023190975189208984
169,0.01025390625,-0.0274658203125,0.854736328125,-0.7786259541984732,-3.8091603053435112,0.03816793893129771,0.0023179054260253906
169,0.01953125,-0.0321044921875,0.854248046875,-0.5419847328244275,-3.8625954198473282,-0.11450381679389313,0.0023186206817626953
169,0.015869140625,-0.0323486328125,0.875,-1.0534351145038168,-3.519083969465649,0.10687022900763359,0.0023169517517089844
169,0.018310546875,-0.0279541015625,0.860595703125,-0.8320610687022901,-3.9618320610687023,0.015267175572519083,0.0023183822631835938
168,0.019287109375,-0.0257568359375,0.85888671875,-0.7633587786259542,-3.6793893129770994,0.04580152671755725,0.0023174285888671875
168,0.017578125,-0.0286865234375,0.880859375,-0.816793893129771,-3.732824427480916,-0.12213740458015267,0.002318143844604492
169,0.011962890625,-0.0281982421875,0.843994140625,-0.8244274809160306,-3.83206106870229,0.1450381679389313,0.0023174285888671875
168,0.02099609375,-0.0233154296875,0.857421875,-0.8015267175572519,-3.877862595419847,-0.061068702290076333,0.002317190170288086
169,0.007080078125,-0.0252685546875,0.87353515625,-0.6030534351145038,-3.7709923664122136,0.13740458015267176,0.002316713333129883
168,0.020751953125,-0.0274658203125,0.861572265625,-0.6946564885496184,-3.8244274809160306,0.0,0.002317190170288086
167,0.024658203125,-0.0321044921875,0.87158203125,-0.648854961832061,-3.877862595419847,0.1297709923664122,0.002315998077392578
167,0.010498046875,-0.0325927734375,0.870361328125,-0.6183206106870229,-3.7022900763358777,0.13740458015267176,0.002317667007446289
168,0.01513671875,-0.0316162109375,0.861572265625,-0.6946564885496184,-3.9618320610687023,0.0916030534351145,0.002316713333129883
168,0.0234375,-0.0343017578125,0.864501953125,-0.7251908396946565,-3.8931297709923665,0.11450381679389313,0.0023174285888671875
168,0.016357421875,-0.0345458984375,0.864501953125,-0.7251908396946565,-3.7251908396946565,0.1984732824427481,0.0023169517517089844
167,0.01318359375,-0.0299072265625,0.868896484375,-0.5954198473282443,-3.900763358778626,-0.007633587786259542,0.002317190170288086
167,0.016357421875,-0.0279541015625,0.871337890625,-0.7709923664122137,-3.66412213740458,0.1450381679389313,0.0023174285888671875
167,0.020263671875,-0.0272216796875,0.860107421875,-0.7404580152671756,-3.8244274809160306,0.13740458015267176,0.002317667007446289
168,0.019287109375,-0.0264892578125,0.871826171875,-0.6030534351145038,-3.763358778625954,0.13740458015267176,0.0023179054260253906
169,0.0166015625,-0.0306396484375,0.862060546875,-0.7480916030534351,-3.8702290076335877,0.06870229007633588,0.002317190170288086
169,0.020751953125,-0.0313720703125,0.863037109375,-0.7175572519083969,-4.022900763358779,0.015267175572519083,0.0023174285888671875
170,0.016357421875,-0.0262451171875,0.868408203125,-0.6717557251908397,-3.8396946564885495,0.2824427480916031,0.002317190170288086
170,0.01806640625,-0.0238037109375,0.86083984375,-0.8625954198473282,-3.687022900763359,0.0,0.0023164749145507812
171,0.01318359375,-0.0313720703125,0.86376953125,-0.6259541984732825,-3.7557251908396947,0.13740458015267176,0.0023317337036132812
169,0.018310546875,-0.0264892578125,0.867919921875,-0.8778625954198473,-3.7709923664122136,0.03816793893129771,0.002320528030395508
170,0.0166015625,-0.0308837890625,0.861572265625,-0.6946564885496184,-3.9160305343511452,0.16793893129770993,0.002318859100341797
171,0.017822265625,-0.0321044921875,0.862060546875,-0.9389312977099237,-3.9389312977099236,0.10687022900763359,0.0023174285888671875
172,0.013916015625,-0.0291748046875,0.862548828125,-0.732824427480916,-3.7022900763358777,0.07633587786259542,0.002318143844604492
171,0.017578125,-0.0306396484375,0.855224609375,-0.8702290076335878,-3.687022900763359,-0.09923664122137404,0.0023186206817626953
170,0.017333984375,-0.0321044921875,0.860595703125,-0.5572519083969466,-4.083969465648855,0.09923664122137404,0.002318143844604492
172,0.013427734375,-0.0323486328125,0.865966796875,-0.7557251908396947,-3.8931297709923665,0.007633587786259542,0.0023174285888671875
173,0.016845703125,-0.0303955078125,0.85888671875,-0.5267175572519084,-4.0534351145038165,0.2366412213740458,0.002317667007446289
174,0.022705078125,-0.0274658203125,0.8564453125,-0.648854961832061,-3.732824427480916,0.22137404580152673,0.0023183822631835938
173,0.01806640625,-0.0299072265625,0.8681640625,-0.4961832061068702,-4.061068702290076,0.1450381679389313,0.002316713333129883
173,0.012939453125,-0.0316162109375,0.869873046875,-0.4580152671755725,-3.7938931297709924,0.17557251908396945,0.002317667007446289
174,0.01513671875,-0.0267333984375,0.869384765625,-0.5572519083969466,-3.8244274809160306,0.32061068702290074,0.002317667007446289
174,0.012451171875,-0.0308837890625,0.85400390625,-0.6259541984732825,-3.732824427480916,0.06870229007633588,0.002317190170288086
173,0.019775390625,-0.0311279296875,0.857177734375,-0.8625954198473282,-3.9083969465648853,-0.05343511450381679,0.002318143844604492
174,0.016845703125,-0.0311279296875,0.863525390625,-0.6870229007633588,-3.5572519083969465,0.0,0.0023317337036132812
174,0.0126953125,-0.0311279296875,0.86865234375,-0.7022900763358778,-3.969465648854962,0.022900763358778626,0.0023190975189208984
175,0.009765625,-0.0333251953125,0.866943359375,-0.8091603053435115,-3.9160305343511452,-0.09923664122137404,0.0023183822631835938
175,0.010986328125,-0.0235595703125,0.87060546875,-0.7633587786259542,-3.6564885496183206,0.0916030534351145,0.002318859100341797
176,0.02197265625,-0.0262451171875,0.864501953125,-0.7480916030534351,-4.038167938931298,0.25190839694656486,0.002346515655517578
175,0.025146484375,-0.0335693359375,0.867919921875,-0.816793893129771,-3.8702290076335877,0.183206106870229,0.002319812774658203
176,0.012451171875,-0.0308837890625,0.857666015625,-0.8625954198473282,-3.7480916030534353,0.09923664122137404,0.0023183822631835938
176,0.025390625,-0.0294189453125,0.867431640625,-0.6259541984732825,-3.8625954198473282,0.13740458015267176,0.0023179054260253906
176,0.012939453125,-0.0335693359375,0.865966796875,-0.7099236641221374,-3.931297709923664,0.04580152671755725,0.0023186206817626953
176,0.017333984375,-0.0279541015625,0.86376953125,-0.7557251908396947,-3.7022900763358777,0.07633587786259542,0.0023186206817626953
176,0.017822265625,-0.0299072265625,0.874755859375,-0.648854961832061,-3.9160305343511452,0.04580152671755725,0.002318143844604492
176,0.0166015625,-0.0269775390625,0.8662109375,-0.7480916030534351,-3.931297709923664,0.22900763358778625,0.002318143844604492
175,0.02197265625,-0.0308837890625,0.862060546875,-0.5877862595419847,-3.7938931297709924,0.0916030534351145,0.002317190170288086
176,0.018310546875,-0.0255126953125,0.856201171875,-0.8244274809160306,-3.786259541984733,0.03816793893129771,0.002317667007446289
176,0.0146484375,-0.0279541015625,0.864990234375,-0.48854961832061067,-3.7022900763358777,-0.007633587786259542,0.002317190170288086
177,0.0185546875,-0.0274658203125,0.862548828125,-0.7175572519083969,-3.816793893129771,0.25190839694656486,0.002317667007446289
177,0.01611328125,-0.0289306640625,0.863525390625,-0.6412213740458015,-3.6946564885496183,-0.08396946564885496,0.002312898635864258
177,0.0244140625,-0.0242919921875,0.858642578125,-0.6793893129770993,-3.6946564885496183,0.061068702290076333,0.0023193359375
177,0.0185546875,-0.0299072265625,0.856201171875,-0.7251908396946565,-3.984732824427481,0.366412213740458,0.002318859100341797
177,0.017578125,-0.0286865234375,0.8798828125,-0.8778625954198473,-3.7709923664122136,0.061068702290076333,0.0024890899658203125
177,0.02099609375,-0.0277099609375,0.86083984375,-0.6717557251908397,-3.877862595419847,0.16793893129770993,0.002332448959350586
177,0.0185546875,-0.0284423828125,0.86279296875,-0.6106870229007634,-3.6564885496183206,0.0,0.0023190975189208984
177,0.00830078125,-0.0330810546875,0.863037109375,-0.7557251908396947,-3.687022900763359,0.11450381679389313,0.0023169517517089844
177,0.01904296875,-0.0350341796875,0.86962890625,-0.7862595419847328,-3.7709923664122136,0.04580152671755725,0.002318859100341797
177,0.022216796875,-0.0240478515625,0.855224609375,-0.8320610687022901,-3.648854961832061,0.061068702290076333,0.002317667007446289
178,0.0205078125,-0.0277099609375,0.86083984375,-0.9083969465648855,-3.7022900763358777,0.007633587786259542,0.0023174285888671875
177,0.023193359375,-0.0277099609375,0.85888671875,-0.6717557251908397,-3.8091603053435112,0.1297709923664122,0.0023179054260253906
177,0.02197265625,-0.0247802734375,0.864501953125,-0.7938931297709924,-3.7099236641221376,-0.13740458015267176,0.002317190170288086
177,0.021728515625,-0.0247802734375,0.86962890625,-0.9465648854961832,-4.022900763358779,0.0916030534351145,0.0023186206817626953
177,0.01904296875,-0.0296630859375,0.8681640625,-0.6793893129770993,-3.595419847328244,0.13740458015267176,0.0023169517517089844
178,0.017578125,-0.0303955078125,0.867919921875,-0.7633587786259542,-3.7404580152671754,0.015267175572519083,0.002317667007446289
177,0.014892578125,-0.0296630859375,0.86376953125,-0.5877862595419847,-3.854961832061069,0.16793893129770993,0.002316713333129883
178,0.01904296875,-0.0299072265625,0.863037109375,-0.6030534351145038,-3.717557251908397,-0.05343511450381679,0.002317190170288086
179,0.022216796875,-0.0294189453125,0.859619140625,-0.5877862595419847,-3.6946564885496183,0.20610687022900764,0.0023174285888671875
179,0.014892578125,-0.0284423828125,0.870361328125,-0.8625954198473282,-3.83206106870229,0.007633587786259542,0.002317667007446289
179,0.015380859375,-0.0316162109375,0.868896484375,-0.9083969465648855,-3.7404580152671754,0.05343511450381679,0.002317667007446289
179,0.013427734375,-0.0281982421875,0.853515625,-0.6717557251908397,-3.7404580152671754,0.10687022900763359,0.002317667007446289
179,0.014892578125,-0.0306396484375,0.86572265625,-0.8320610687022901,-3.6106870229007635,-0.09923664122137404,0.0023179054260253906
179,0.013916015625,-0.0303955078125,0.868896484375,-0.9312977099236641,-3.931297709923664,0.21374045801526717,0.0023174285888671875
179,0.01904296875,-0.0274658203125,0.855224609375,-0.9694656488549618,-3.648854961832061,0.1297709923664122,0.0023169517517089844
179,0.019775390625,-0.0281982421875,0.861572265625,-0.9541984732824428,-3.732824427480916,0.022900763358778626,0.002316713333129883
179,0.01708984375,-0.0289306640625,0.873291015625,-0.7404580152671756,-3.687022900763359,0.022900763358778626,0.0023169517517089844
174,0.0166015625,-0.0257568359375,0.84619140625,-0.7404580152671756,-3.8625954198473282,0.10687022900763359,0.0023179054260253906
179,0.015625,-0.0350341796875,0.8681640625,-0.6412213740458015,-3.8396946564885495,0.07633587786259542,0.002316713333129883
178,0.01904296875,-0.0279541015625,0.881591796875,-0.6564885496183206,-3.7709923664122136,0.1450381679389313,0.002317190170288086
178,0.019775390625,-0.0340576171875,0.859375,-0.7938931297709924,-4.083969465648855,0.09923664122137404,0.002317190170288086
178,0.018798828125,-0.0323486328125,0.86181640625,-0.8854961832061069,-3.633587786259542,0.0,0.002316713333129883
178,0.012939453125,-0.0308837890625,0.88330078125,-0.7404580152671756,-3.6793893129770994,-0.015267175572519083,0.0023276805877685547
178,0.013671875,-0.0250244140625,0.85205078125,-0.6641221374045801,-3.9923664122137406,-0.03816793893129771,0.0023186206817626953
179,0.022216796875,-0.0289306640625,0.8701171875,-0.648854961832061,-3.687022900763359,0.12213740458015267,0.0023193359375
179,0.018798828125,-0.0274658203125,0.867431640625,-0.7404580152671756,-3.9618320610687023,0.08396946564885496,0.0023555755615234375
179,0.019287109375,-0.0343017578125,0.85205078125,-0.5190839694656488,-3.7709923664122136,0.03816793893129771,0.002333402633666992
179,0.022705078125,-0.0308837890625,0.864013671875,-0.7480916030534351,-3.7022900763358777,0.08396946564885496,0.002318859100341797
180,0.022216796875,-0.0306396484375,0.869384765625,-0.6717557251908397,-3.786259541984733,0.19083969465648856,0.002317667007446289
179,0.025390625,-0.0333251953125,0.866455078125,-0.7480916030534351,-3.6030534351145036,0.1450381679389313,0.0023190975189208984
177,0.017333984375,-0.0277099609375,0.85302734375,-0.6717557251908397,-3.9923664122137406,0.10687022900763359,0.002317190170288086
179,0.02392578125,-0.0323486328125,0.865966796875,-0.9465648854961832,-3.7022900763358777,0.13740458015267176,0.0023179054260253906
179,0.021240234375,-0.0294189453125,0.85986328125,-0.7633587786259542,-4.0458015267175576,0.04580152671755725,0.002317667007446289
179,0.02294921875,-0.0294189453125,0.867919921875,-0.9007633587786259,-3.801526717557252,0.04580152671755725,0.002317190170288086
179,0.017333984375,-0.0250244140625,0.861572265625,-0.7099236641221374,-3.7786259541984735,0.04580152671755725,0.0023174285888671875
179,0.021728515625,-0.0296630859375,0.864013671875,-0.8778625954198473,-3.9389312977099236,0.0916030534351145,0.002318143844604492
179,0.016357421875,-0.0328369140625,0.861572265625,-0.648854961832061,-3.6793893129770994,0.19083969465648856,0.0023179054260253906
178,0.016357421875,-0.0296630859375,0.859130859375,-0.4961832061068702,-3.763358778625954,0.22900763358778625,0.0023169517517089844
179,0.01953125,-0.0247802734375,0.87451171875,-0.8320610687022901,-3.7022900763358777,-0.007633587786259542,0.0023429393768310547
177,0.01708984375,-0.0303955078125,0.859619140625,-0.7862595419847328,-3.7786259541984735,0.022900763358778626,0.002320528030395508
179,0.023681640625,-0.0262451171875,0.867919921875,-0.8778625954198473,-3.8396946564885495,0.0,0.002318859100341797
179,0.013916015625,-0.0323486328125,0.868896484375,-0.6946564885496184,-3.9389312977099236,0.183206106870229,0.0023174285888671875
179,0.017822265625,-0.0284423828125,0.862548828125,-0.6106870229007634,-3.9083969465648853,0.0,0.002317190170288086
179,0.020263671875,-0.0272216796875,0.868896484375,-0.8854961832061069,-3.816793893129771,0.11450381679389313,0.002316713333129883
178,0.015380859375,-0.0301513671875,0.8681640625,-0.5801526717557252,-3.885496183206107,0.04580152671755725,0.002317190170288086
178,0.01904296875,-0.0274658203125,0.861083984375,-0.7557251908396947,-3.984732824427481,0.07633587786259542,0.0023174285888671875
178,0.02099609375,-0.0250244140625,0.880859375,-0.5954198473282443,-3.633587786259542,0.13740458015267176,0.002317190170288086
177,0.016357421875,-0.0267333984375,0.849853515625,-0.7175572519083969,-3.7557251908396947,0.061068702290076333,0.0023174285888671875
178,0.016845703125,-0.0296630859375,0.86083984375,-0.7175572519083969,-3.7022900763358777,0.061068702290076333,0.002334117889404297
178,0.01416015625,-0.0296630859375,0.86279296875,-0.6870229007633588,-3.877862595419847,0.2900763358778626,0.0023212432861328125
177,0.02001953125,-0.0281982421875,0.8544921875,-0.8549618320610687,-3.931297709923664,-0.06870229007633588,0.0023200511932373047
177,0.02099609375,-0.0389404296875,0.87109375,-0.8625954198473282,-3.5267175572519083,0.183206106870229,0.002317667007446289
173,0.017578125,-0.0294189453125,0.86865234375,-0.8549618320610687,-3.946564885496183,-0.015267175572519083,0.0023174285888671875
177,0.014892578125,-0.0299072265625,0.859375,-0.732824427480916,-3.8091603053435112,0.0,0.0023179054260253906
177,0.021728515625,-0.0238037109375,0.876220703125,-1.0,-3.6793893129770994,0.22137404580152673,0.002315521240234375
177,0.01611328125,-0.0294189453125,0.865478515625,-0.9083969465648855,-3.8625954198473282,0.061068702290076333,0.002317667007446289
177,0.0205078125,-0.0299072265625,0.85986328125,-0.648854961832061,-3.8091603053435112,0.0,0.002316713333129883
177,0.015869140625,-0.0313720703125,0.86328125,-0.6183206106870229,-3.984732824427481,0.07633587786259542,0.0023157596588134766
177,0.02197265625,-0.0257568359375,0.85009765625,-0.6259541984732825,-3.7404580152671754,0.1984732824427481,0.0025625228881835938
176,0.018310546875,-0.0306396484375,0.862060546875,-0.7633587786259542,-3.6259541984732824,0.11450381679389313,0.002336263656616211
178,0.0166015625,-0.0247802734375,0.8759765625,-0.6183206106870229,-3.931297709923664,0.183206106870229,0.0023200511932373047
176,0.0146484375,-0.0277099609375,0.853759765625,-0.4961832061068702,-3.9389312977099236,-0.022900763358778626,0.0023169517517089844
176,0.01953125,-0.0279541015625,0.870361328125,-0.5267175572519084,-3.633587786259542,0.030534351145038167,0.0023186206817626953
176,0.01611328125,-0.0274658203125,0.863525390625,-0.8854961832061069,-3.8702290076335877,0.24427480916030533,0.0023179054260253906
178,0.0185546875,-0.0325927734375,0.8583984375,-0.5648854961832062,-3.954198473282443,0.1984732824427481,0.0035619735717773438
177,0.01708984375,-0.0301513671875,0.8662109375,-0.8625954198473282,-3.877862595419847,0.015267175572519083,0.0023298263549804688
177,0.01708984375,-0.0284423828125,0.8603515625,-0.6412213740458015,-3.8625954198473282,0.20610687022900764,0.0023193359375
177,0.016845703125,-0.0303955078125,0.86279296875,-0.8396946564885496,-3.7480916030534353,0.20610687022900764,0.0023193359375
178,0.02001953125,-0.0301513671875,0.8720703125,-0.7786259541984732,-3.7251908396946565,0.10687022900763359,0.002317667007446289
177,0.017822265625,-0.0230712890625,0.858154296875,-0.7480916030534351,-3.900763358778626,0.15267175572519084,0.0023183822631835938
177,0.01513671875,-0.0308837890625,0.859375,-0.8549618320610687,-3.66412213740458,0.11450381679389313,0.0023190975189208984
177,0.020751953125,-0.0321044921875,0.869873046875,-0.7938931297709924,-3.8091603053435112,0.030534351145038167,0.0023174285888671875
177,0.01611328125,-0.0262451171875,0.859130859375,-0.8091603053435115,-3.595419847328244,0.12213740458015267,0.0023183822631835938
177,0.021728515625,-0.0296630859375,0.86669921875,-0.7633587786259542,-4.0534351145038165,0.09923664122137404,0.0023195743560791016
177,0.01708984375,-0.0277099609375,0.864501953125,-0.6564885496183206,-3.6946564885496183,0.29770992366412213,0.0023183822631835938
177,0.018310546875,-0.0289306640625,0.873046875,-0.7175572519083969,-3.6717557251908395,0.015267175572519083,0.0023193359375
177,0.02001953125,-0.0291748046875,0.8583984375,-0.7022900763358778,-3.7251908396946565,0.030534351145038167,0.0023164749145507812
176,0.01806640625,-0.0328369140625,0.861328125,-0.7099236641221374,-3.7480916030534353,0.2366412213740458,0.0023190975189208984
177,0.016357421875,-0.0279541015625,0.856201171875,-0.6183206106870229,-3.801526717557252,0.030534351145038167,0.002317667007446289
176,0.012939453125,-0.0299072265625,0.856689453125,-0.6946564885496184,-3.6717557251908395,0.06870229007633588,0.002318143844604492
177,0.017822265625,-0.0284423828125,0.8671875,-0.9236641221374046,-3.6946564885496183,0.030534351145038167,0.0023179054260253906
178,0.01513671875,-0.0277099609375,0.8662109375,-0.5801526717557252,-3.7938931297709924,0.17557251908396945,0.002316713333129883
176,0.01806640625,-0.0306396484375,0.86669921875,-0.8778625954198473,-4.0,0.16793893129770993,0.002316713333129883
176,0.020263671875,-0.0262451171875,0.8544921875,-0.7862595419847328,-3.8702290076335877,0.10687022900763359,0.0023169517517089844
176,0.0185546875,-0.0269775390625,0.856689453125,-0.8396946564885496,-3.7557251908396947,0.08396946564885496,0.0023179054260253906
176,0.01416015625,-0.0196533203125,0.85791015625,-0.7404580152671756,-3.7557251908396947,0.061068702290076333,0.002317667007446289
177,0.021240234375,-0.0279541015625,0.860595703125,-0.9618320610687023,-4.1679389312977095,0.1297709923664122,0.0023179054260253906
175,0.02197265625,-0.0301513671875,0.87451171875,-0.7633587786259542,-3.648854961832061,-0.11450381679389313,0.0023190975189208984
176,0.012451171875,-0.0289306640625,0.86767578125,-0.732824427480916,-3.931297709923664,0.16793893129770993,0.002317667007446289
177,0.01171875,-0.0257568359375,0.853271484375,-0.7709923664122137,-3.9923664122137406,-0.015267175572519083,0.0023174285888671875
177,0.016357421875,-0.0308837890625,0.8701171875,-0.8320610687022901,-3.7251908396946565,0.05343511450381679,0.0023174285888671875
176,0.0185546875,-0.0338134765625,0.85693359375,-0.9389312977099237,-3.946564885496183,0.12213740458015267,0.0023183822631835938
176,0.016357421875,-0.0325927734375,0.867431640625,-0.6335877862595419,-3.687022900763359,0.04580152671755725,0.002318143844604492
176,0.016357421875,-0.0311279296875,0.872802734375,-0.8320610687022901,-3.717557251908397,0.03816793893129771,0.0023162364959716797
174,0.01318359375,-0.0291748046875,0.86474609375,-0.6564885496183206,-3.8244274809160306,0.0916030534351145,0.0023174285888671875
176,0.015380859375,-0.0291748046875,0.865234375,-0.5648854961832062,-3.8931297709923665,0.07633587786259542,0.0023162364959716797
175,0.008056640625,-0.0291748046875,0.872314453125,-0.5801526717557252,-3.7938931297709924,0.08396946564885496,0.002316713333129883
175,0.014892578125,-0.0299072265625,0.860107421875,-0.7480916030534351,-3.732824427480916,0.007633587786259542,0.002317667007446289
175,0.016357421875,-0.0281982421875,0.859375,-0.7709923664122137,-3.717557251908397,0.26717557251908397,0.0023169517517089844
175,0.018310546875,-0.0296630859375,0.8671875,-0.8702290076335878,-3.732824427480916,0.12213740458015267,0.002330303192138672
175,0.01416015625,-0.0286865234375,0.8759765625,-0.6717557251908397,-3.801526717557252,0.1984732824427481,0.0023164749145507812
175,0.01513671875,-0.0279541015625,0.859130859375,-0.6870229007633588,-3.816793893129771,0.2595419847328244,0.0023360252380371094
174,0.0146484375,-0.0242919921875,0.856689453125,-0.7709923664122137,-3.786259541984733,0.0,0.0023233890533447266
174,0.01904296875,-0.0252685546875,0.87353515625,-0.7938931297709924,-3.786259541984733,0.0,0.002317667007446289
175,0.02001953125,-0.0316162109375,0.855712890625,-0.7022900763358778,-3.633587786259542,-0.03816793893129771,0.0023458003997802734
175,0.01171875,-0.0313720703125,0.864501953125,-0.7938931297709924,-3.786259541984733,-0.022900763358778626,0.0023217201232910156
176,0.025634765625,-0.0303955078125,0.8623046875,-0.732824427480916,-3.6793893129770994,0.1297709923664122,0.0027081966400146484
176,0.017333984375,-0.0301513671875,0.86767578125,-0.8625954198473282,-3.885496183206107,0.17557251908396945,0.002347707748413086
176,0.022216796875,-0.0340576171875,0.865966796875,-0.6870229007633588,-3.8244274809160306,0.09923664122137404,0.0023202896118164062
176,0.01123046875,-0.0323486328125,0.86474609375,-0.9465648854961832,-3.8091603053435112,0.0,0.0023200511932373047
175,0.017333984375,-0.0264892578125,0.857177734375,-0.7480916030534351,-3.8091603053435112,0.1297709923664122,0.0023164749145507812
179,0.011962890625,-0.0296630859375,0.863525390625,-0.5801526717557252,-3.648854961832061,0.3511450381679389,0.0023195743560791016
175,0.01611328125,-0.0247802734375,0.86474609375,-0.5190839694656488,-3.83206106870229,0.16793893129770993,0.0023183822631835938
175,0.01220703125,-0.0323486328125,0.86083984375,-0.7099236641221374,-3.801526717557252,0.10687022900763359,0.0023186206817626953
175,0.013671875,-0.0313720703125,0.87060546875,-0.8854961832061069,-3.6412213740458017,0.16793893129770993,0.0023186206817626953
175,0.017333984375,-0.0333251953125,0.8583984375,-0.8931297709923665,-3.648854961832061,0.007633587786259542,0.0023202896118164062
175,0.021484375,-0.0333251953125,0.862060546875,-0.732824427480916,-3.763358778625954,0.030534351145038167,0.002321004867553711
175,0.019775390625,-0.0316162109375,0.853515625,-0.7786259541984732,-3.786259541984733,-0.04580152671755725,0.0023131370544433594
175,0.0166015625,-0.0257568359375,0.865234375,-0.6717557251908397,-3.6946564885496183,0.20610687022900764,0.0023186206817626953
175,0.015869140625,-0.0260009765625,0.85986328125,-0.7404580152671756,-3.6946564885496183,0.2824427480916031,0.0023169517517089844
176,0.018310546875,-0.0294189453125,0.859619140625,-0.7862595419847328,-3.7251908396946565,0.21374045801526717,0.002317667007446289
175,0.0166015625,-0.0294189453125,0.8623046875,-0.5343511450381679,-3.8473282442748094,0.3053435114503817,0.002317667007446289
175,0.01806640625,-0.0242919921875,0.852294921875,-0.8854961832061069,-3.816793893129771,0.015267175572519083,0.002597808837890625
175,0.016845703125,-0.0262451171875,0.8525390625,-0.7175572519083969,-3.732824427480916,0.21374045801526717,0.002339601516723633
172,0.0166015625,-0.0277099609375,0.8701171875,-0.9847328244274809,-3.854961832061069,0.17557251908396945,0.002319812774658203
175,0.01513671875,-0.0318603515625,0.864501953125,-0.7480916030534351,-3.8473282442748094,-0.06870229007633588,0.002318143844604492
175,0.0205078125,-0.0306396484375,0.868896484375,-0.6412213740458015,-3.854961832061069,0.22137404580152673,0.0023193359375
175,0.01904296875,-0.0250244140625,0.872802734375,-0.5419847328244275,-3.66412213740458,0.0916030534351145,0.002317190170288086
172,0.018310546875,-0.0284423828125,0.86376953125,-0.6030534351145038,-3.7404580152671754,-0.05343511450381679,0.0023174285888671875
175,0.0224609375,-0.0294189453125,0.863525390625,-0.6259541984732825,-3.618320610687023,0.2366412213740458,0.0023174285888671875
175,0.01708984375,-0.0340576171875,0.864013671875,-0.7709923664122137,-3.969465648854962,0.1297709923664122,0.0023169517517089844
175,0.01220703125,-0.0296630859375,0.87158203125,-0.5190839694656488,-3.7938931297709924,0.1450381679389313,0.0023183822631835938
175,0.015625,-0.0294189453125,0.862060546875,-0.732824427480916,-3.8244274809160306,0.2748091603053435,0.002318859100341797
174,0.013916015625,-0.0318603515625,0.86572265625,-0.7480916030534351,-3.83206106870229,0.10687022900763359,0.0023183822631835938
175,0.0224609375,-0.0316162109375,0.863525390625,-0.6641221374045801,-3.732824427480916,0.09923664122137404,0.0027527809143066406
176,0.022705078125,-0.0333251953125,0.859375,-0.8244274809160306,-3.687022900763359,-0.015267175572519083,0.0023348331451416016
175,0.0224609375,-0.0240478515625,0.86865234375,-0.8244274809160306,-3.7022900763358777,0.2900763358778626,0.0023195743560791016
177,0.016845703125,-0.0313720703125,0.867431640625,-0.9083969465648855,-3.7480916030534353,0.04580152671755725,0.002317667007446289
176,0.009765625,-0.0294189453125,0.8642578125,-0.9770992366412213,-3.954198473282443,-0.022900763358778626,0.002324819564819336
176,0.011474609375,-0.0321044921875,0.85986328125,-0.6946564885496184,-3.83206106870229,0.030534351145038167,0.0023152828216552734
177,0.010498046875,-0.0267333984375,0.86279296875,-0.9541984732824428,-3.7786259541984735,0.05343511450381679,0.0023190975189208984
179,0.0146484375,-0.0281982421875,0.862060546875,-0.7862595419847328,-3.648854961832061,0.2595419847328244,0.0023169517517089844
176,0.01953125,-0.0272216796875,0.869873046875,-0.816793893129771,-3.6946564885496183,0.04580152671755725,0.002317667007446289
176,0.015869140625,-0.0225830078125,0.866455078125,-0.7633587786259542,-3.633587786259542,0.030534351145038167,0.0023169517517089844
177,0.021728515625,-0.0338134765625,0.87353515625,-0.816793893129771,-4.0,0.04580152671755725,0.002317667007446289
177,0.023193359375,-0.0296630859375,0.867431640625,-0.7251908396946565,-3.83206106870229,0.26717557251908397,0.002315998077392578
176,0.021484375,-0.0294189453125,0.858642578125,-0.6946564885496184,-3.854961832061069,-0.015267175572519083,0.0023169517517089844
177,0.01708984375,-0.0323486328125,0.85888671875,-0.7709923664122137,-3.954198473282443,0.030534351145038167,0.002317667007446289
177,0.01806640625,-0.0255126953125,0.861328125,-0.6641221374045801,-3.946564885496183,0.07633587786259542,0.002317190170288086
177,0.01953125,-0.0274658203125,0.860107421875,-0.732824427480916,-3.83206106870229,0.183206106870229,0.0023162364959716797
177,0.02099609375,-0.0242919921875,0.86767578125,-0.7709923664122137,-3.8396946564885495,0.22137404580152673,0.002344846725463867
177,0.0205078125,-0.0247802734375,0.86279296875,-0.732824427480916,-3.8702290076335877,0.0,0.002321481704711914
177,0.01953125,-0.0272216796875,0.8564453125,-0.6946564885496184,-3.7786259541984735,0.11450381679389313,0.002315998077392578
177,0.01220703125,-0.0291748046875,0.86279296875,-0.8702290076335878,-3.900763358778626,0.17557251908396945,0.002316713333129883
186,0.016357421875,-0.0284423828125,0.865234375,-0.9236641221374046,-3.9923664122137406,0.09923664122137404,0.002317667007446289
177,0.02099609375,-0.0274658203125,0.866455078125,-0.816793893129771,-3.6946564885496183,0.1450381679389313,0.0023179054260253906
177,0.01318359375,-0.0284423828125,0.86279296875,-0.5572519083969466,-3.7404580152671754,0.22900763358778625,0.002317190170288086
176,0.017822265625,-0.0230712890625,0.85791015625,-1.0076335877862594,-3.854961832061069,0.1450381679389313,0.0023186206817626953
183,0.02001953125,-0.0321044921875,0.8671875,-0.6870229007633588,-3.9770992366412212,0.12213740458015267,0.0023164749145507812
177,0.01806640625,-0.0335693359375,0.860595703125,-0.8015267175572519,-3.7557251908396947,0.1297709923664122,0.002318143844604492
176,0.014892578125,-0.0267333984375,0.85546875,-0.8396946564885496,-4.1603053435114505,0.0916030534351145,0.002317190170288086
177,0.019287109375,-0.0306396484375,0.8623046875,-0.6717557251908397,-3.7557251908396947,0.44274809160305345,0.002317190170288086
176,0.016357421875,-0.0291748046875,0.870849609375,-0.7022900763358778,-3.633587786259542,0.12213740458015267,0.0023169517517089844
176,0.016357421875,-0.0277099609375,0.8583984375,-0.8015267175572519,-3.931297709923664,0.17557251908396945,0.002317190170288086
177,0.01171875,-0.0340576171875,0.866943359375,-0.6412213740458015,-3.801526717557252,0.07633587786259542,0.0023174285888671875
176,0.01513671875,-0.0323486328125,0.86328125,-0.5343511450381679,-3.687022900763359,0.17557251908396945,0.0023152828216552734
176,0.0166015625,-0.0284423828125,0.860107421875,-0.5114503816793893,-3.954198473282443,0.1297709923664122,0.0023345947265625
177,0.0146484375,-0.0318603515625,0.86328125,-0.916030534351145,-3.7251908396946565,0.007633587786259542,0.0023190975189208984
176,0.015869140625,-0.0257568359375,0.85400390625,-0.5267175572519084,-3.6793893129770994,0.16030534351145037,0.0023183822631835938
176,0.019287109375,-0.0264892578125,0.8603515625,-0.6335877862595419,-3.8244274809160306,-0.061068702290076333,0.0023186206817626953
176,0.018798828125,-0.0255126953125,0.861083984375,-0.5954198473282443,-4.0534351145038165,0.33587786259541985,0.002318143844604492
175,0.015869140625,-0.0286865234375,0.8603515625,-0.8549618320610687,-3.7099236641221376,-0.08396946564885496,0.0023190975189208984
176,0.018798828125,-0.0262451171875,0.864501953125,-0.8015267175572519,-3.816793893129771,0.12213740458015267,0.002317667007446289
176,0.012939453125,-0.0318603515625,0.86328125,-0.9007633587786259,-3.8091603053435112,-0.022900763358778626,0.0023183822631835938
176,0.020751953125,-0.0269775390625,0.86376953125,-0.8702290076335878,-4.244274809160306,0.05343511450381679,0.002318143844604492
176,0.018798828125,-0.0311279296875,0.8623046875,-0.9312977099236641,-3.5877862595419847,0.29770992366412213,0.0023179054260253906
176,0.015380859375,-0.0306396484375,0.863525390625,-0.8396946564885496,-4.022900763358779,0.20610687022900764,0.0023183822631835938
175,0.018798828125,-0.0296630859375,0.866943359375,-0.7709923664122137,-3.732824427480916,0.06870229007633588,0.0023164749145507812
177,0.016845703125,-0.0272216796875,0.857666015625,-0.7480916030534351,-3.7938931297709924,0.22137404580152673,0.002317667007446289
176,0.01904296875,-0.0262451171875,0.865478515625,-0.5801526717557252,-3.6946564885496183,0.48854961832061067,0.002317667007446289
176,0.01708984375,-0.0281982421875,0.86962890625,-0.7633587786259542,-3.8473282442748094,0.1984732824427481,0.002317667007446289
176,0.01416015625,-0.0264892578125,0.86767578125,-0.648854961832061,-3.9160305343511452,-0.022900763358778626,0.002332925796508789
176,0.013916015625,-0.0303955078125,0.863525390625,-0.6717557251908397,-3.6717557251908395,-0.03816793893129771,0.002319812774658203
176,0.020751953125,-0.0286865234375,0.861083984375,-0.7480916030534351,-4.061068702290076,-0.1450381679389313,0.0023183822631835938
176,0.022216796875,-0.0284423828125,0.870849609375,-0.7480916030534351,-3.8244274809160306,0.33587786259541985,0.0023179054260253906
176,0.0185546875,-0.0238037109375,0.864990234375,-0.5725190839694656,-3.8931297709923665,0.183206106870229,0.0025327205657958984
176,0.021728515625,-0.0277099609375,0.860595703125,-0.916030534351145,-3.6106870229007635,-0.007633587786259542,0.002335786819458008
176,0.01953125,-0.0289306640625,0.86865234375,-0.7404580152671756,-3.8625954198473282,0.22137404580152673,0.002323150634765625
174,0.015380859375,-0.0272216796875,0.864013671875,-0.7022900763358778,-3.8244274809160306,0.16030534351145037,0.0023195743560791016
176,0.02001953125,-0.0242919921875,0.857421875,-0.7938931297709924,-3.7404580152671754,0.04580152671755725,0.002318143844604492
175,0.013916015625,-0.0269775390625,0.865478515625,-0.9083969465648855,-3.6564885496183206,0.21374045801526717,0.0023186206817626953
175,0.017822265625,-0.0274658203125,0.856689453125,-0.8091603053435115,-3.801526717557252,0.12213740458015267,0.0023202896118164062
175,0.018310546875,-0.0277099609375,0.856689453125,-0.8702290076335878,-3.877862595419847,-0.33587786259541985,0.0023581981658935547
175,0.015380859375,-0.0277099609375,0.863525390625,-0.549618320610687,-3.931297709923664,0.12213740458015267,0.0023200511932373047
175,0.0185546875,-0.0294189453125,0.859130859375,-0.8015267175572519,-3.7557251908396947,0.19083969465648856,0.002318143844604492
175,0.01953125,-0.0311279296875,0.869140625,-0.6641221374045801,-3.732824427480916,0.05343511450381679,0.0023186206817626953
175,0.01708984375,-0.0318603515625,0.869873046875,-0.6564885496183206,-3.7938931297709924,0.06870229007633588,0.002317190170288086
179,0.01806640625,-0.0279541015625,0.865478515625,-0.8244274809160306,-3.7709923664122136,0.07633587786259542,0.002318143844604492
174,0.012939453125,-0.0289306640625,0.864990234375,-0.7022900763358778,-3.7404580152671754,0.015267175572519083,0.0023190975189208984
175,0.01953125,-0.0289306640625,0.865478515625,-0.6946564885496184,-3.732824427480916,0.1984732824427481,0.0023183822631835938
174,0.015380859375,-0.0296630859375,0.865966796875,-0.7938931297709924,-3.8702290076335877,0.09923664122137404,0.002318143844604492
174,0.01904296875,-0.0279541015625,0.86669921875,-0.6793893129770993,-3.7404580152671754,0.0916030534351145,0.002317190170288086
174,0.018798828125,-0.0294189453125,0.866455078125,-0.7099236641221374,-3.763358778625954,0.19083969465648856,0.002318143844604492
174,0.013671875,-0.0245361328125,0.862548828125,-0.6335877862595419,-4.1679389312977095,-0.007633587786259542,0.002318143844604492
174,0.01123046875,-0.0272216796875,0.869140625,-0.6335877862595419,-3.885496183206107,0.1450381679389313,0.0023190975189208984
175,0.019287109375,-0.0277099609375,0.867919921875,-0.8244274809160306,-3.66412213740458,-0.007633587786259542,0.0023348331451416016
175,0.01904296875,-0.0313720703125,0.86865234375,-0.6793893129770993,-3.7022900763358777,0.07633587786259542,0.002326488494873047
175,0.01953125,-0.0321044921875,0.867431640625,-0.6717557251908397,-3.7786259541984735,0.0916030534351145,0.002319812774658203
175,0.01904296875,-0.0260009765625,0.858642578125,-0.7633587786259542,-3.6030534351145036,0.15267175572519084,0.002316713333129883
175,0.01171875,-0.0303955078125,0.859619140625,-0.7022900763358778,-3.854961832061069,0.12213740458015267,0.0023162364959716797
175,0.010986328125,-0.0318603515625,0.85693359375,-0.6564885496183206,-3.900763358778626,0.1984732824427481,0.002312898635864258
176,0.01708984375,-0.0272216796875,0.862548828125,-0.6793893129770993,-3.648854961832061,0.15267175572519084,0.0023186206817626953
175,0.017578125,-0.0335693359375,0.857666015625,-0.9770992366412213,-3.954198473282443,-0.030534351145038167,0.002318859100341797
175,0.01904296875,-0.0299072265625,0.86474609375,-0.7557251908396947,-3.6793893129770994,0.05343511450381679,0.0023322105407714844
177,0.02001953125,-0.0323486328125,0.86279296875,-0.4961832061068702,-3.801526717557252,0.25190839694656486,0.0024483203887939453
176,0.01220703125,-0.0291748046875,0.8671875,-0.549618320610687,-3.7022900763358777,0.022900763358778626,0.0024461746215820312
176,0.013916015625,-0.0269775390625,0.86328125,-0.45038167938931295,-3.7786259541984735,0.25190839694656486,0.002458810806274414
175,0.0205078125,-0.0252685546875,0.865234375,-0.8778625954198473,-3.8473282442748094,0.07633587786259542,0.002395153045654297
176,0.019287109375,-0.0242919921875,0.860107421875,-0.5877862595419847,-3.7251908396946565,0.15267175572519084,0.002346038818359375
175,0.014892578125,-0.0264892578125,0.869873046875,-0.8091603053435115,-3.7022900763358777,0.1297709923664122,0.002321958541870117
176,0.013916015625,-0.0299072265625,0.858154296875,-0.7786259541984732,-3.8625954198473282,0.17557251908396945,0.002319812774658203
176,0.02001953125,-0.0301513671875,0.86474609375,-0.5954198473282443,-3.7709923664122136,0.03816793893129771,0.0023193359375
176,0.02001953125,-0.0286865234375,0.86767578125,-0.8625954198473282,-4.00763358778626,-0.06870229007633588,0.0023338794708251953
176,0.013671875,-0.0284423828125,0.853515625,-0.7709923664122137,-3.6412213740458017,0.015267175572519083,0.0023190975189208984
176,0.016845703125,-0.0289306640625,0.861572265625,-0.8091603053435115,-3.6564885496183206,-0.05343511450381679,0.0023183822631835938
175,0.01708984375,-0.0267333984375,0.867919921875,-0.8015267175572519,-3.885496183206107,0.1450381679389313,0.002318143844604492
