emg_0,emg_1,emg_2,emg_3,emg_4,acc_x,acc_y,acc_z,gyro_x,gyro_y,gyro_z,dt
270,0.0,0.0,0.0,0.0,0.0,0.0,0.17655014991760254
270,0.0,0.0,0.0,0.0,0.0,0.0,0.0025060176849365234
270,0.0,0.0,0.0,-10.030534351145038,-22.6793893129771,13.526717557251908,0.002526998519897461
269,0.021484375,-0.0299072265625,0.857177734375,-14.01526717557252,-30.603053435114504,10.320610687022901,0.002547740936279297
269,0.023193359375,-0.0352783203125,0.864013671875,-13.458015267175572,-25.3206106870229,7.267175572519084,0.0024576187133789062
270,0.016357421875,-0.0279541015625,0.863037109375,-12.106870229007633,-12.251908396946565,1.1603053435114503,0.002432584762573242
269,0.0166015625,-0.0296630859375,0.864013671875,-18.748091603053435,7.152671755725191,3.1297709923664123,0.002491474151611328
268,0.023681640625,-0.0343017578125,0.864013671875,-27.33587786259542,-12.717557251908397,3.0839694656488548,0.0023338794708251953
268,0.012451171875,-0.0345458984375,0.861328125,0.2595419847328244,-14.267175572519085,3.2748091603053435,0.0023190975189208984
267,0.017578125,-0.0308837890625,0.85400390625,-0.4351145038167939,-1.2213740458015268,2.0381679389312977,0.002512216567993164
266,0.013671875,-0.0350341796875,0.858642578125,-0.6030534351145038,-4.0458015267175576,-0.4961832061068702,0.0023300647735595703
266,0.018798828125,-0.0311279296875,0.869873046875,-0.44274809160305345,-4.076335877862595,0.2748091603053435,0.002438068389892578
265,0.01806640625,-0.0389404296875,0.85791015625,-0.6412213740458015,-3.7709923664122136,0.17557251908396945,0.002457141876220703
264,0.018798828125,-0.0321044921875,0.8623046875,-0.7557251908396947,-3.5801526717557253,-0.03816793893129771,0.002414226531982422
264,0.019287109375,-0.0262451171875,0.8466796875,-0.7709923664122137,-3.816793893129771,-0.16030534351145037,0.0023343563079833984
263,0.017333984375,-0.0333251953125,0.859375,-0.7175572519083969,-3.816793893129771,0.09923664122137404,0.002317667007446289
262,0.018798828125,-0.0345458984375,0.86328125,-0.6259541984732825,-3.687022900763359,0.10687022900763359,0.002431154251098633
261,0.017333984375,-0.0274658203125,0.862548828125,-0.648854961832061,-3.7557251908396947,-0.015267175572519083,0.0023238658905029297
261,0.015869140625,-0.0272216796875,0.862548828125,-0.5648854961832062,-3.6946564885496183,0.31297709923664124,0.0023190975189208984
260,0.02001953125,-0.0374755859375,0.863525390625,-0.6030534351145038,-3.732824427480916,-0.17557251908396945,0.0023162364959716797
259,0.021728515625,-0.0384521484375,0.8623046875,-0.6641221374045801,-3.9923664122137406,0.04580152671755725,0.002315044403076172
259,0.01953125,-0.0364990234375,0.864501953125,-0.6564885496183206,-3.83206106870229,0.21374045801526717,0.0023224353790283203
257,0.0166015625,-0.0413818359375,0.86669921875,-0.5725190839694656,-3.6717557251908395,0.007633587786259542,0.0023446083068847656
256,0.020263671875,-0.0355224609375,0.8603515625,-0.8549618320610687,-4.106870229007634,0.061068702290076333,0.002315998077392578
255,0.0224609375,-0.0352783203125,0.871337890625,-0.8702290076335878,-3.717557251908397,0.06870229007633588,0.0023200511932373047
255,0.019775390625,-0.0325927734375,0.859619140625,-1.0076335877862594,-3.8396946564885495,0.0,0.0023407936096191406
254,0.021728515625,-0.0394287109375,0.86328125,-1.1297709923664123,-3.786259541984733,0.15267175572519084,0.0023179054260253906
253,0.014404296875,-0.0299072265625,0.869140625,-0.9465648854961832,-3.7709923664122136,0.022900763358778626,0.0023169517517089844
252,0.021240234375,-0.0347900390625,0.87548828125,-0.7938931297709924,-3.6717557251908395,0.09923664122137404,0.0023179054260253906
251,0.021728515625,-0.0303955078125,0.856689453125,-0.31297709923664124,-3.8396946564885495,0.15267175572519084,0.002317667007446289
250,0.020263671875,-0.0264892578125,0.860595703125,-0.44274809160305345,-3.8244274809160306,0.030534351145038167,0.0023179054260253906
250,0.021728515625,-0.0274658203125,0.864990234375,-0.5038167938931297,-4.0,0.022900763358778626,0.0023186206817626953
248,0.0166015625,-0.0316162109375,0.8583984375,-0.366412213740458,-3.786259541984733,0.022900763358778626,0.002315998077392578
247,0.01806640625,-0.0316162109375,0.861328125,-0.4351145038167939,-3.6793893129770994,-0.030534351145038167,0.002318143844604492
247,0.0234375,-0.0308837890625,0.868896484375,-0.4961832061068702,-3.572519083969466,0.015267175572519083,0.002319812774658203
246,0.015625,-0.0269775390625,0.865966796875,-0.4732824427480916,-3.7786259541984735,-0.04580152671755725,0.0023174285888671875
245,0.020751953125,-0.0294189453125,0.855224609375,-0.6259541984732825,-3.7786259541984735,0.20610687022900764,0.002318143844604492
244,0.017333984375,-0.0272216796875,0.85546875,-0.7251908396946565,-3.9236641221374047,0.08396946564885496,0.0023179054260253906
242,0.016357421875,-0.0286865234375,0.86767578125,-0.7557251908396947,-3.8931297709923665,0.08396946564885496,0.002317667007446289
242,0.023193359375,-0.0347900390625,0.857666015625,-0.816793893129771,-3.6793893129770994,0.29770992366412213,0.0023169517517089844
241,0.017578125,-0.0281982421875,0.862548828125,-0.7251908396946565,-3.633587786259542,0.11450381679389313,0.0023179054260253906
239,0.021728515625,-0.0340576171875,0.856201171875,-0.5801526717557252,-3.7480916030534353,0.09923664122137404,0.0023164749145507812
239,0.016845703125,-0.0357666015625,0.8701171875,-0.6641221374045801,-3.732824427480916,0.08396946564885496,0.002349853515625
238,0.012939453125,-0.0321044921875,0.857666015625,-0.6564885496183206,-3.8702290076335877,-0.1450381679389313,0.0023193359375
237,0.015869140625,-0.0325927734375,0.8662109375,-0.732824427480916,-3.854961832061069,-0.061068702290076333,0.0023169517517089844
236,0.023681640625,-0.0340576171875,0.859619140625,-0.5648854961832062,-3.8091603053435112,0.1297709923664122,0.002317667007446289
235,0.015380859375,-0.0294189453125,0.8662109375,-0.6106870229007634,-3.7557251908396947,0.24427480916030533,0.0023162364959716797
234,0.019775390625,-0.0335693359375,0.8623046875,-0.6335877862595419,-3.8396946564885495,-0.1297709923664122,0.0023193359375
233,0.015869140625,-0.0396728515625,0.861572265625,-0.6412213740458015,-3.6564885496183206,0.022900763358778626,0.002317667007446289
232,0.021240234375,-0.0338134765625,0.853271484375,-0.4122137404580153,-3.984732824427481,0.022900763358778626,0.002316713333129883
232,0.01708984375,-0.0311279296875,0.865478515625,-0.7404580152671756,-3.7404580152671754,0.19083969465648856,0.002317667007446289
231,0.017578125,-0.0316162109375,0.864990234375,-0.6717557251908397,-3.8931297709923665,0.07633587786259542,0.0023374557495117188
230,0.02099609375,-0.0340576171875,0.871826171875,-0.7862595419847328,-3.8244274809160306,0.17557251908396945,0.002341747283935547
229,0.017822265625,-0.0318603515625,0.8525390625,-0.6412213740458015,-3.7557251908396947,0.13740458015267176,0.0023217201232910156
228,0.018310546875,-0.0330810546875,0.8603515625,-0.6717557251908397,-3.8396946564885495,0.06870229007633588,0.0023193359375
227,0.01953125,-0.0335693359375,0.8603515625,-0.8091603053435115,-3.854961832061069,0.061068702290076333,0.0023183822631835938
226,0.02001953125,-0.0321044921875,0.858154296875,-0.732824427480916,-3.7709923664122136,0.2366412213740458,0.002317667007446289
226,0.016845703125,-0.0350341796875,0.863037109375,-0.7633587786259542,-3.877862595419847,0.0,0.0023190975189208984
224,0.015869140625,-0.0323486328125,0.860107421875,-0.8320610687022901,-3.6106870229007635,0.09923664122137404,0.002318143844604492
223,0.0263671875,-0.0335693359375,0.87109375,-1.0687022900763359,-3.7404580152671754,0.08396946564885496,0.002316713333129883
224,0.015869140625,-0.0262451171875,0.8583984375,-0.8778625954198473,-3.9236641221374047,0.0,0.0023124217987060547
222,0.016357421875,-0.0330810546875,0.861572265625,-1.0763358778625953,-3.595419847328244,0.0,0.002321004867553711
222,0.02001953125,-0.0335693359375,0.86669921875,-0.8015267175572519,-3.5877862595419847,0.03816793893129771,0.0023186206817626953
220,0.02099609375,-0.0364990234375,0.858154296875,-0.8549618320610687,-3.7709923664122136,-0.07633587786259542,0.002317190170288086
220,0.022216796875,-0.0372314453125,0.858642578125,-0.7786259541984732,-3.7557251908396947,0.030534351145038167,0.0023186206817626953
220,0.02197265625,-0.0372314453125,0.86279296875,-0.6793893129770993,-3.5343511450381677,-0.015267175572519083,0.0024805068969726562
218,0.01953125,-0.0377197265625,0.870849609375,-0.5725190839694656,-3.8244274809160306,0.12213740458015267,0.002434968948364258
217,0.02001953125,-0.0382080078125,0.8662109375,-0.4580152671755725,-3.885496183206107,0.20610687022900764,0.0023641586303710938
217,0.017333984375,-0.0340576171875,0.86279296875,-0.3893129770992366,-3.8396946564885495,-0.09923664122137404,0.0023193359375
216,0.01806640625,-0.0347900390625,0.859619140625,-0.5801526717557252,-3.7557251908396947,0.13740458015267176,0.002321481704711914
215,0.01953125,-0.0330810546875,0.860595703125,-0.4122137404580153,-3.7938931297709924,-0.07633587786259542,0.002320528030395508
214,0.0205078125,-0.0281982421875,0.86767578125,-0.5419847328244275,-3.8702290076335877,0.35877862595419846,0.002316713333129883
214,0.022705078125,-0.0303955078125,0.860595703125,-0.42748091603053434,-3.6717557251908395,-0.030534351145038167,0.0023164749145507812
213,0.024169921875,-0.0294189453125,0.861328125,-0.5648854961832062,-3.4427480916030535,0.17557251908396945,0.0023169517517089844
213,0.0224609375,-0.0321044921875,0.863037109375,-0.549618320610687,-3.8244274809160306,0.0,0.0023174285888671875
211,0.013916015625,-0.0311279296875,0.86279296875,-0.6793893129770993,-3.7557251908396947,0.007633587786259542,0.002314329147338867
211,0.0224609375,-0.0318603515625,0.868896484375,-0.6946564885496184,-3.687022900763359,0.0916030534351145,0.0023164749145507812
210,0.012451171875,-0.0321044921875,0.859130859375,-0.7633587786259542,-3.786259541984733,-0.10687022900763359,0.002315044403076172
210,0.015869140625,-0.0321044921875,0.867431640625,-0.7251908396946565,-3.854961832061069,0.09923664122137404,0.0023157596588134766
209,0.0185546875,-0.0401611328125,0.8623046875,-0.732824427480916,-3.717557251908397,-0.03816793893129771,0.0023152828216552734
208,0.016357421875,-0.0313720703125,0.86474609375,-0.7633587786259542,-3.877862595419847,0.0,0.002313852310180664
208,0.017578125,-0.0333251953125,0.863037109375,-0.8015267175572519,-3.969465648854962,0.1984732824427481,0.002313375473022461
207,0.018798828125,-0.0333251953125,0.85791015625,-0.6717557251908397,-3.7709923664122136,-0.03816793893129771,0.002313852310180664
206,0.022705078125,-0.0343017578125,0.858154296875,-0.7175572519083969,-3.6259541984732824,-0.05343511450381679,0.002315044403076172
206,0.017333984375,-0.0333251953125,0.86279296875,-0.5419847328244275,-3.6946564885496183,0.3893129770992366,0.002315521240234375
205,0.0185546875,-0.0306396484375,0.867431640625,-0.5419847328244275,-3.7709923664122136,-0.10687022900763359,0.0023148059844970703
205,0.02001953125,-0.0330810546875,0.8662109375,-0.48854961832061067,-3.595419847328244,0.1450381679389313,0.002315998077392578
204,0.018798828125,-0.0330810546875,0.87060546875,-0.44274809160305345,-3.8091603053435112,0.16793893129770993,0.0023140907287597656
204,0.0205078125,-0.0350341796875,0.870849609375,-0.6106870229007634,-3.83206106870229,0.4198473282442748,0.0023157596588134766
203,0.0224609375,-0.0316162109375,0.860595703125,-0.5648854961832062,-3.5114503816793894,0.0916030534351145,0.0023140907287597656
202,0.01318359375,-0.0338134765625,0.87060546875,-0.48854961832061067,-3.8244274809160306,0.12213740458015267,0.0023157596588134766
201,0.017333984375,-0.0357666015625,0.85400390625,-0.8091603053435115,-3.7480916030534353,0.3435114503816794,0.002314329147338867
201,0.020263671875,-0.0303955078125,0.856201171875,-0.6564885496183206,-3.854961832061069,0.03816793893129771,0.0023145675659179688
201,0.021240234375,-0.0352783203125,0.870361328125,-0.7175572519083969,-3.648854961832061,0.33587786259541985,0.002315044403076172
200,0.02197265625,-0.0308837890625,0.86376953125,-0.9770992366412213,-3.9083969465648853,0.07633587786259542,0.002313375473022461
199,0.024169921875,-0.0343017578125,0.867919921875,-0.7709923664122137,-3.732824427480916,0.10687022900763359,0.002314329147338867
199,0.02099609375,-0.0343017578125,0.860595703125,-0.7862595419847328,-3.786259541984733,0.13740458015267176,0.0023140907287597656
199,0.01806640625,-0.0296630859375,0.865478515625,-0.7404580152671756,-3.877862595419847,0.15267175572519084,0.0023412704467773438
198,0.021240234375,-0.0316162109375,0.858154296875,-0.7709923664122137,-3.572519083969466,0.13740458015267176,0.002315998077392578
198,0.02294921875,-0.0296630859375,0.84912109375,-0.8625954198473282,-3.6030534351145036,0.007633587786259542,0.002313375473022461
197,0.02197265625,-0.0328369140625,0.866943359375,-0.48091603053435117,-3.885496183206107,-0.022900763358778626,0.0023162364959716797
196,0.02294921875,-0.0338134765625,0.86328125,-0.7251908396946565,-3.8396946564885495,0.19083969465648856,0.0023136138916015625
196,0.015869140625,-0.0379638671875,0.8701171875,-0.6030534351145038,-3.7709923664122136,0.20610687022900764,0.0023140907287597656
196,0.0224609375,-0.0382080078125,0.865478515625,-0.5801526717557252,-3.7786259541984735,0.015267175572519083,0.0023140907287597656
195,0.018310546875,-0.0338134765625,0.85595703125,-0.3282442748091603,-3.816793893129771,0.05343511450381679,0.0023145675659179688
195,0.0205078125,-0.0350341796875,0.85888671875,-0.40458015267175573,-3.801526717557252,0.15267175572519084,0.0023148059844970703
195,0.018310546875,-0.0316162109375,0.85595703125,-0.32061068702290074,-3.7557251908396947,0.05343511450381679,0.0023140907287597656
195,0.021484375,-0.0279541015625,0.865966796875,-0.45038167938931295,-3.6259541984732824,0.33587786259541985,0.002313852310180664
194,0.026123046875,-0.0284423828125,0.86474609375,-0.6030534351145038,-3.7404580152671754,-0.10687022900763359,0.002313375473022461
194,0.01416015625,-0.0316162109375,0.861083984375,-0.5267175572519084,-3.9770992366412212,0.04580152671755725,0.0023140907287597656
192,0.0224609375,-0.0262451171875,0.86767578125,-0.5801526717557252,-3.49618320610687,0.22900763358778625,0.0023136138916015625
192,0.01220703125,-0.0306396484375,0.85205078125,-0.5038167938931297,-3.633587786259542,0.0,0.002313375473022461
192,0.01318359375,-0.0306396484375,0.861572265625,-0.8091603053435115,-3.8702290076335877,0.12213740458015267,0.002312898635864258
192,0.020263671875,-0.0347900390625,0.8583984375,-0.8854961832061069,-3.5572519083969465,0.07633587786259542,0.0023126602172851562
191,0.01953125,-0.0325927734375,0.864990234375,-0.9694656488549618,-4.015267175572519,-0.11450381679389313,0.0023145675659179688
191,0.015869140625,-0.0299072265625,0.87353515625,-0.6946564885496184,-3.83206106870229,0.20610687022900764,0.002313852310180664
190,0.018310546875,-0.0323486328125,0.8603515625,-0.732824427480916,-3.6106870229007635,0.16030534351145037,0.0023140907287597656
190,0.019287109375,-0.0340576171875,0.857421875,-0.9083969465648855,-3.595419847328244,0.0,0.0023148059844970703
190,0.020263671875,-0.0347900390625,0.866455078125,-0.7862595419847328,-3.8931297709923665,0.2748091603053435,0.0023119449615478516
189,0.017578125,-0.0372314453125,0.871337890625,-0.7251908396946565,-3.877862595419847,-0.1297709923664122,0.0023148059844970703
189,0.020263671875,-0.0355224609375,0.858154296875,-0.732824427480916,-3.7480916030534353,0.09923664122137404,0.002312898635864258
188,0.0166015625,-0.0323486328125,0.85302734375,-0.6259541984732825,-3.3893129770992365,0.10687022900763359,0.0023136138916015625
188,0.01806640625,-0.0345458984375,0.867919921875,-0.5572519083969466,-3.9236641221374047,0.015267175572519083,0.0023136138916015625
187,0.016845703125,-0.0323486328125,0.856201171875,-0.7251908396946565,-3.8473282442748094,-0.183206106870229,0.0023140907287597656
188,0.019287109375,-0.0306396484375,0.85791015625,-0.6259541984732825,-3.6946564885496183,0.21374045801526717,0.002314329147338867
188,0.017578125,-0.0433349609375,0.86865234375,-0.648854961832061,-3.801526717557252,0.1297709923664122,0.0023124217987060547
187,0.0244140625,-0.0418701171875,0.86572265625,-0.5954198473282443,-3.9618320610687023,0.22900763358778625,0.002313375473022461
187,0.02294921875,-0.0330810546875,0.844970703125,-0.5877862595419847,-3.6030534351145036,0.06870229007633588,0.0023136138916015625
187,0.011962890625,-0.0325927734375,0.87353515625,-0.8396946564885496,-3.786259541984733,0.03816793893129771,0.002438068389892578
186,0.013427734375,-0.0318603515625,0.853515625,-0.7404580152671756,-4.015267175572519,-0.03816793893129771,0.0023250579833984375
186,0.017822265625,-0.0274658203125,0.851318359375,-0.7404580152671756,-3.49618320610687,0.29770992366412213,0.002315998077392578
186,0.02587890625,-0.0357666015625,0.872802734375,-0.5648854961832062,-3.648854961832061,0.1984732824427481,0.0023157596588134766
186,0.018798828125,-0.0299072265625,0.861572265625,-0.8320610687022901,-4.221374045801527,0.09923664122137404,0.0023124217987060547
185,0.025390625,-0.0330810546875,0.852783203125,-1.0534351145038168,-3.3435114503816794,-0.030534351145038167,0.002314329147338867
185,0.02392578125,-0.0391845703125,0.870361328125,-0.5343511450381679,-3.9770992366412212,0.1450381679389313,0.0023140907287597656
185,0.015625,-0.0333251953125,0.859375,-0.7480916030534351,-4.083969465648855,0.183206106870229,0.0023140907287597656
184,0.020263671875,-0.0306396484375,0.869873046875,-0.6641221374045801,-3.3893129770992365,0.007633587786259542,0.002314329147338867
184,0.010009765625,-0.0272216796875,0.88037109375,-0.6259541984732825,-4.206106870229007,0.030534351145038167,0.002312898635864258
183,0.0185546875,-0.0350341796875,0.849609375,-0.5419847328244275,-3.687022900763359,0.05343511450381679,0.0023140907287597656
184,0.015869140625,-0.0306396484375,0.863525390625,-0.7251908396946565,-3.6717557251908395,-0.06870229007633588,0.002313375473022461
184,0.01513671875,-0.0384521484375,0.878662109375,-0.5648854961832062,-4.221374045801527,0.22900763358778625,0.0023140907287597656
184,0.026123046875,-0.0316162109375,0.849609375,-0.5114503816793893,-3.519083969465649,0.022900763358778626,0.002313852310180664
183,0.02197265625,-0.0311279296875,0.8759765625,-0.5954198473282443,-3.633587786259542,0.015267175572519083,0.0023136138916015625
183,0.015380859375,-0.0330810546875,0.86474609375,-0.7175572519083969,-4.0534351145038165,0.1297709923664122,0.002312898635864258
183,0.02490234375,-0.0289306640625,0.864013671875,-0.6870229007633588,-3.3587786259541983,0.007633587786259542,0.002312898635864258
183,0.0185546875,-0.0306396484375,0.867919921875,-0.6030534351145038,-3.885496183206107,0.1984732824427481,0.0023140907287597656
182,0.02294921875,-0.0279541015625,0.8564453125,-0.7099236641221374,-4.030534351145038,0.20610687022900764,0.0023131370544433594
181,0.017578125,-0.0223388671875,0.861083984375,-0.7175572519083969,-3.427480916030534,-0.022900763358778626,0.0023148059844970703
182,0.01513671875,-0.0267333984375,0.879638671875,-0.7022900763358778,-3.8091603053435112,0.21374045801526717,0.0023145675659179688
182,0.011474609375,-0.0296630859375,0.85107421875,-0.5954198473282443,-4.061068702290076,0.015267175572519083,0.002312898635864258
181,0.01611328125,-0.0279541015625,0.846923828125,-1.0,-3.2442748091603053,0.0,0.0023140907287597656
182,0.01904296875,-0.0362548828125,0.8740234375,-0.7633587786259542,-4.0,0.022900763358778626,0.002309560775756836
182,0.016845703125,-0.0335693359375,0.85986328125,-0.5877862595419847,-3.9083969465648853,0.08396946564885496,0.002311229705810547
182,0.01806640625,-0.0313720703125,0.862548828125,-0.6946564885496184,-3.2442748091603053,-0.06870229007633588,0.0023136138916015625
181,0.01416015625,-0.0338134765625,0.876708984375,-0.5954198473282443,-4.076335877862595,0.20610687022900764,0.0023148059844970703
181,0.0185546875,-0.0308837890625,0.859130859375,-0.816793893129771,-3.763358778625954,0.16030534351145037,0.002315998077392578
181,0.024658203125,-0.0333251953125,0.86669921875,-0.6793893129770993,-3.786259541984733,0.015267175572519083,0.002308368682861328
180,0.0234375,-0.0389404296875,0.866943359375,-0.6641221374045801,-3.763358778625954,0.2366412213740458,0.0023140907287597656
181,0.023681640625,-0.0386962890625,0.8564453125,-0.6793893129770993,-3.4885496183206106,0.007633587786259542,0.002314329147338867
180,0.017578125,-0.0340576171875,0.863037109375,-0.6183206106870229,-3.763358778625954,0.0,0.002315044403076172
179,0.02099609375,-0.0343017578125,0.85595703125,-0.45038167938931295,-3.786259541984733,0.0,0.0023119449615478516
180,0.02490234375,-0.0308837890625,0.864501953125,-0.6259541984732825,-3.7404580152671754,0.022900763358778626,0.002312898635864258
180,0.02001953125,-0.0360107421875,0.858154296875,-0.8931297709923665,-3.6030534351145036,0.19083969465648856,0.0023145675659179688
179,0.023681640625,-0.0377197265625,0.862060546875,-0.8320610687022901,-3.7709923664122136,-0.04580152671755725,0.0023126602172851562
179,0.019775390625,-0.0264892578125,0.856689453125,-0.7709923664122137,-3.816793893129771,0.022900763358778626,0.002314329147338867
180,0.01611328125,-0.0333251953125,0.864990234375,-0.8244274809160306,-3.8625954198473282,0.03816793893129771,0.0023136138916015625
180,0.027099609375,-0.0335693359375,0.866943359375,-0.8320610687022901,-3.816793893129771,0.13740458015267176,0.002314329147338867
180,0.018798828125,-0.0355224609375,0.86474609375,-0.8549618320610687,-3.7251908396946565,0.1297709923664122,0.0023145675659179688
179,0.01806640625,-0.0269775390625,0.863525390625,-0.7480916030534351,-3.8625954198473282,0.0916030534351145,0.0023126602172851562
179,0.02001953125,-0.0325927734375,0.85205078125,-0.916030534351145,-3.6030534351145036,0.022900763358778626,0.0023145675659179688
179,0.01171875,-0.0394287109375,0.871337890625,-0.7175572519083969,-3.717557251908397,0.1297709923664122,0.002312898635864258
179,0.017822265625,-0.0335693359375,0.865478515625,-0.6412213740458015,-4.00763358778626,0.2595419847328244,0.0023140907287597656
180,0.017333984375,-0.0399169921875,0.863037109375,-0.648854961832061,-3.8244274809160306,0.1450381679389313,0.002314329147338867
178,0.015380859375,-0.0333251953125,0.869384765625,-0.45038167938931295,-3.8244274809160306,0.17557251908396945,0.002313852310180664
179,0.018310546875,-0.0350341796875,0.856689453125,-0.6412213740458015,-3.7557251908396947,0.08396946564885496,0.002315521240234375
179,0.01953125,-0.0343017578125,0.861083984375,-0.5190839694656488,-3.8473282442748094,0.11450381679389313,0.0023131370544433594
179,0.023193359375,-0.0362548828125,0.868408203125,-0.3816793893129771,-3.5572519083969465,0.16030534351145037,0.002313375473022461
178,0.021728515625,-0.0299072265625,0.869873046875,-0.549618320610687,-3.6717557251908395,0.05343511450381679,0.0024766921997070312
179,0.01953125,-0.0294189453125,0.86328125,-0.5801526717557252,-3.9160305343511452,-0.05343511450381679,0.002341032028198242
179,0.01806640625,-0.0355224609375,0.866455078125,-0.6183206106870229,-3.8244274809160306,0.183206106870229,0.002318859100341797
178,0.01806640625,-0.0340576171875,0.867919921875,-0.48854961832061067,-3.549618320610687,0.022900763358778626,0.0023145675659179688
179,0.013916015625,-0.0333251953125,0.86376953125,-0.6564885496183206,-3.8473282442748094,0.1450381679389313,0.002317667007446289
178,0.015380859375,-0.0291748046875,0.87060546875,-0.5801526717557252,-3.7251908396946565,-0.022900763358778626,0.002314329147338867
179,0.01953125,-0.0350341796875,0.858642578125,-0.8320610687022901,-3.7786259541984735,0.11450381679389313,0.0023152828216552734
178,0.015625,-0.0323486328125,0.86865234375,-0.732824427480916,-3.618320610687023,0.06870229007633588,0.0023145675659179688
179,0.01513671875,-0.0313720703125,0.86474609375,-0.6870229007633588,-3.8244274809160306,0.09923664122137404,0.002315998077392578
181,0.015625,-0.0362548828125,0.860595703125,-0.7709923664122137,-3.877862595419847,0.26717557251908397,0.002315044403076172
178,0.01806640625,-0.0328369140625,0.8603515625,-0.7633587786259542,-3.8473282442748094,0.2824427480916031,0.002313852310180664
178,0.020263671875,-0.0330810546875,0.864990234375,-0.6030534351145038,-3.763358778625954,0.10687022900763359,0.0023148059844970703
178,0.022216796875,-0.0328369140625,0.860107421875,-0.7862595419847328,-3.816793893129771,0.0,0.002314329147338867
177,0.014404296875,-0.0294189453125,0.85302734375,-0.8091603053435115,-3.7786259541984735,0.2748091603053435,0.0023136138916015625
178,0.01513671875,-0.0308837890625,0.855712890625,-0.8473282442748091,-3.6946564885496183,-0.13740458015267176,0.002314329147338867
177,0.020263671875,-0.0257568359375,0.86376953125,-0.6641221374045801,-3.931297709923664,0.1297709923664122,0.0024271011352539062
178,0.01904296875,-0.0333251953125,0.864013671875,-0.5419847328244275,-3.6717557251908395,-0.04580152671755725,0.0023250579833984375
177,0.017333984375,-0.0338134765625,0.853759765625,-0.6946564885496184,-3.6259541984732824,0.07633587786259542,0.002315044403076172
178,0.0244140625,-0.0316162109375,0.8681640625,-0.6717557251908397,-3.9160305343511452,0.03816793893129771,0.002315998077392578
178,0.0166015625,-0.0350341796875,0.85498046875,-0.6335877862595419,-3.786259541984733,0.030534351145038167,0.0023148059844970703
177,0.021484375,-0.0318603515625,0.862548828125,-0.5572519083969466,-3.6412213740458017,-0.09923664122137404,0.002314329147338867
177,0.0205078125,-0.0374755859375,0.856201171875,-0.7633587786259542,-3.763358778625954,0.08396946564885496,0.002315521240234375
178,0.021240234375,-0.0384521484375,0.863525390625,-0.7633587786259542,-3.8091603053435112,0.29770992366412213,0.002313375473022461
178,0.01708984375,-0.0355224609375,0.86474609375,-0.7099236641221374,-3.4885496183206106,-0.030534351145038167,0.0023145675659179688
178,0.0185546875,-0.0289306640625,0.871826171875,-0.7938931297709924,-3.8931297709923665,0.030534351145038167,0.002315044403076172
178,0.019775390625,-0.0313720703125,0.868896484375,-0.8320610687022901,-3.763358778625954,0.07633587786259542,0.002314329147338867
177,0.021484375,-0.0303955078125,0.864990234375,-0.8778625954198473,-4.061068702290076,0.10687022900763359,0.0023140907287597656
177,0.01953125,-0.0377197265625,0.86181640625,-0.5572519083969466,-3.572519083969466,0.16030534351145037,0.0023140907287597656
177,0.017822265625,-0.0333251953125,0.867431640625,-0.7022900763358778,-3.717557251908397,0.183206106870229,0.002314329147338867
177,0.0244140625,-0.0323486328125,0.863525390625,-0.7175572519083969,-3.9236641221374047,0.05343511450381679,0.0023131370544433594
178,0.013427734375,-0.0347900390625,0.871826171875,-0.48854961832061067,-3.7480916030534353,-0.05343511450381679,0.0023145675659179688
177,0.01904296875,-0.0301513671875,0.854736328125,-0.5648854961832062,-3.7251908396946565,0.022900763358778626,0.0023148059844970703
178,0.02001953125,-0.0303955078125,0.866455078125,-0.42748091603053434,-3.6259541984732824,0.12213740458015267,0.0023317337036132812
177,0.019775390625,-0.0372314453125,0.8671875,-0.2748091603053435,-3.519083969465649,0.030534351145038167,0.002316713333129883
177,0.01953125,-0.0303955078125,0.859375,-0.48091603053435117,-3.9160305343511452,0.022900763358778626,0.0023148059844970703
177,0.013916015625,-0.0347900390625,0.87060546875,-0.5648854961832062,-3.618320610687023,0.29770992366412213,0.0023157596588134766
177,0.014892578125,-0.0301513671875,0.857177734375,-0.48091603053435117,-3.66412213740458,-0.17557251908396945,0.002315044403076172
177,0.0224609375,-0.0311279296875,0.8671875,-0.5267175572519084,-3.8244274809160306,0.13740458015267176,0.002315998077392578
177,0.014404296875,-0.0267333984375,0.864501953125,-0.7404580152671756,-3.732824427480916,0.0,0.002317667007446289
177,0.02197265625,-0.0318603515625,0.85693359375,-0.6870229007633588,-4.030534351145038,0.022900763358778626,0.0023148059844970703
177,0.021484375,-0.0389404296875,0.8583984375,-0.5877862595419847,-3.687022900763359,0.1450381679389313,0.0023157596588134766
178,0.017822265625,-0.0323486328125,0.8623046875,-0.916030534351145,-3.6717557251908395,0.16793893129770993,0.002310037612915039
177,0.01806640625,-0.0308837890625,0.868896484375,-0.7022900763358778,-3.66412213740458,-0.09923664122137404,0.0023145675659179688
176,0.0205078125,-0.0272216796875,0.859619140625,-0.9007633587786259,-3.9083969465648853,0.03816793893129771,0.002315521240234375
177,0.0166015625,-0.0274658203125,0.85693359375,-0.7175572519083969,-3.6259541984732824,0.007633587786259542,0.0023145675659179688
177,0.0185546875,-0.0284423828125,0.87158203125,-0.7404580152671756,-3.877862595419847,-0.030534351145038167,0.002315044403076172
177,0.019287109375,-0.0360107421875,0.861328125,-0.7862595419847328,-4.083969465648855,0.08396946564885496,0.0023145675659179688
177,0.013427734375,-0.0333251953125,0.85546875,-0.7175572519083969,-3.519083969465649,0.26717557251908397,0.002315044403076172
177,0.01806640625,-0.0372314453125,0.870849609375,-0.7480916030534351,-3.564885496183206,0.05343511450381679,0.002312898635864258
178,0.020263671875,-0.0367431640625,0.850830078125,-0.5267175572519084,-3.931297709923664,0.08396946564885496,0.002314329147338867
177,0.021728515625,-0.0303955078125,0.85107421875,-0.6717557251908397,-3.595419847328244,0.022900763358778626,0.002314329147338867
177,0.016357421875,-0.0347900390625,0.863037109375,-0.46564885496183206,-3.5267175572519083,0.35877862595419846,0.0023145675659179688
178,0.01806640625,-0.0323486328125,0.858154296875,-0.4580152671755725,-4.0,-0.05343511450381679,0.0023162364959716797
177,0.021484375,-0.0303955078125,0.841552734375,-0.5954198473282443,-3.6106870229007635,0.20610687022900764,0.0023126602172851562
177,0.0224609375,-0.0330810546875,0.86767578125,-0.4198473282442748,-3.7099236641221376,0.2595419847328244,0.002315044403076172
177,0.017333984375,-0.0316162109375,0.84326171875,-0.48091603053435117,-4.0458015267175576,0.08396946564885496,0.002312898635864258
179,0.021240234375,-0.0279541015625,0.857666015625,-0.5190839694656488,-3.4732824427480917,0.16793893129770993,0.0023148059844970703
177,0.01708984375,-0.0289306640625,0.87646484375,-0.5648854961832062,-3.9160305343511452,0.1450381679389313,0.0023145675659179688
177,0.021240234375,-0.0316162109375,0.8408203125,-0.8320610687022901,-4.00763358778626,0.25190839694656486,0.0023140907287597656
177,0.02294921875,-0.0360107421875,0.8681640625,-0.7099236641221374,-3.068702290076336,-0.015267175572519083,0.002315044403076172
178,0.009033203125,-0.0335693359375,0.875244140625,-0.8091603053435115,-3.969465648854962,0.22900763358778625,0.002312898635864258
177,0.02490234375,-0.0323486328125,0.856689453125,-0.7786259541984732,-3.6793893129770994,0.10687022900763359,0.0023145675659179688
178,0.015625,-0.0301513671875,0.862548828125,-0.7938931297709924,-3.4580152671755724,0.22137404580152673,0.0023145675659179688
178,0.017578125,-0.0379638671875,0.86328125,-0.9847328244274809,-3.9923664122137406,-0.1450381679389313,0.0023148059844970703
178,0.0205078125,-0.0333251953125,0.86572265625,-0.7862595419847328,-3.6030534351145036,-0.07633587786259542,0.0023140907287597656
177,0.010986328125,-0.0338134765625,0.86572265625,-0.8396946564885496,-3.83206106870229,0.11450381679389313,0.002315521240234375
178,0.02099609375,-0.0369873046875,0.87158203125,-0.6641221374045801,-3.763358778625954,0.3053435114503817,0.002315044403076172
178,0.016845703125,-0.0313720703125,0.85693359375,-0.648854961832061,-3.801526717557252,0.10687022900763359,0.002314329147338867
177,0.021240234375,-0.0355224609375,0.860107421875,-0.7099236641221374,-3.6793893129770994,-0.04580152671755725,0.0023145675659179688
177,0.017333984375,-0.0277099609375,0.863525390625,-0.4198473282442748,-3.7938931297709924,-0.061068702290076333,0.0023145675659179688
178,0.021484375,-0.0364990234375,0.867919921875,-0.4122137404580153,-3.633587786259542,0.022900763358778626,0.0023157596588134766
178,0.020751953125,-0.0394287109375,0.870361328125,-0.45038167938931295,-3.648854961832061,0.21374045801526717,0.0023152828216552734
178,0.01123046875,-0.0347900390625,0.860107421875,-0.6030534351145038,-4.00763358778626,0.030534351145038167,0.002313852310180664
178,0.020263671875,-0.0306396484375,0.863037109375,-0.7175572519083969,-3.7480916030534353,-0.007633587786259542,0.002315044403076172
178,0.01806640625,-0.0303955078125,0.857177734375,-0.5190839694656488,-3.931297709923664,0.3511450381679389,0.0023140907287597656
179,0.022216796875,-0.0318603515625,0.855224609375,-0.6335877862595419,-3.8473282442748094,0.22900763358778625,0.002314329147338867
178,0.02294921875,-0.0391845703125,0.86279296875,-0.7251908396946565,-3.648854961832061,-0.09923664122137404,0.0023152828216552734
178,0.008056640625,-0.0367431640625,0.855224609375,-0.7022900763358778,-4.0534351145038165,0.08396946564885496,0.002315044403076172
179,0.014892578125,-0.0372314453125,0.8505859375,-0.8396946564885496,-3.213740458015267,0.20610687022900764,0.0024232864379882812
178,0.018798828125,-0.0404052734375,0.867431640625,-0.6259541984732825,-4.122137404580153,0.16793893129770993,0.002323627471923828
178,0.020263671875,-0.0306396484375,0.852783203125,-0.7480916030534351,-3.6564885496183206,-0.030534351145038167,0.0023169517517089844
178,0.0322265625,-0.0294189453125,0.859130859375,-0.8396946564885496,-3.2595419847328246,0.022900763358778626,0.002315998077392578
178,0.011962890625,-0.0335693359375,0.86669921875,-0.6030534351145038,-4.534351145038168,-0.007633587786259542,0.002315998077392578
178,0.021240234375,-0.0323486328125,0.856201171875,-0.6259541984732825,-3.435114503816794,0.007633587786259542,0.0023162364959716797
178,0.022705078125,-0.0323486328125,0.87060546875,-0.7480916030534351,-3.8931297709923665,0.11450381679389313,0.0023140907287597656
179,0.019775390625,-0.0301513671875,0.8525390625,-0.5038167938931297,-3.931297709923664,-0.015267175572519083,0.0023157596588134766
179,0.020263671875,-0.0291748046875,0.85888671875,-0.6412213740458015,-3.267175572519084,0.24427480916030533,0.0023136138916015625
179,0.021728515625,-0.0318603515625,0.87841796875,-0.4351145038167939,-4.083969465648855,0.3282442748091603,0.0023148059844970703
178,0.0234375,-0.0335693359375,0.85546875,-0.6183206106870229,-3.786259541984733,0.07633587786259542,0.0023136138916015625
179,0.023681640625,-0.0318603515625,0.852294921875,-0.3435114503816794,-3.450381679389313,-0.061068702290076333,0.0023107528686523438
179,0.020263671875,-0.0272216796875,0.87744140625,-0.5343511450381679,-3.7404580152671754,-0.0916030534351145,0.0023140907287597656
179,0.01904296875,-0.0323486328125,0.873046875,-0.4732824427480916,-3.9236641221374047,-0.10687022900763359,0.002314329147338867
179,0.01904296875,-0.0321044921875,0.853759765625,-0.6946564885496184,-3.3282442748091605,0.1450381679389313,0.002330780029296875
179,0.017822265625,-0.0347900390625,0.871337890625,-0.7099236641221374,-3.816793893129771,-0.022900763358778626,0.002317190170288086
179,0.018310546875,-0.0316162109375,0.865966796875,-0.7022900763358778,-3.9389312977099236,0.25190839694656486,0.002315998077392578
179,0.024658203125,-0.0267333984375,0.86279296875,-0.9007633587786259,-3.2748091603053435,0.03816793893129771,0.0023152828216552734
179,0.01611328125,-0.0301513671875,0.87451171875,-0.7557251908396947,-4.099236641221374,0.061068702290076333,0.002315044403076172
179,0.01806640625,-0.0345458984375,0.86083984375,-0.6946564885496184,-3.9770992366412212,0.11450381679389313,0.0023152828216552734
179,0.019287109375,-0.0340576171875,0.85693359375,-0.8015267175572519,-3.6717557251908395,-0.03816793893129771,0.0023140907287597656
179,0.016357421875,-0.0272216796875,0.862060546875,-0.6106870229007634,-3.7786259541984735,0.16793893129770993,0.0023152828216552734
179,0.0205078125,-0.0338134765625,0.86865234375,-0.7557251908396947,-3.83206106870229,0.07633587786259542,0.0023491382598876953
179,0.0185546875,-0.0308837890625,0.874267578125,-0.6106870229007634,-3.9236641221374047,0.0,0.002318859100341797
179,0.021240234375,-0.0281982421875,0.864501953125,-0.7175572519083969,-3.8931297709923665,0.17557251908396945,0.0023152828216552734
179,0.01904296875,-0.0311279296875,0.863037109375,-0.6259541984732825,-3.5267175572519083,-0.015267175572519083,0.0023670196533203125
180,0.016357421875,-0.0345458984375,0.864013671875,-0.7557251908396947,-3.717557251908397,0.15267175572519084,0.002332925796508789
180,0.02490234375,-0.0301513671875,0.867919921875,-0.37404580152671757,-3.7099236641221376,0.11450381679389313,0.0023164749145507812
180,0.01904296875,-0.0379638671875,0.86279296875,-0.6259541984732825,-3.717557251908397,0.16030534351145037,0.0023169517517089844
179,0.02294921875,-0.0272216796875,0.864501953125,-0.4961832061068702,-3.6946564885496183,0.11450381679389313,0.0023140907287597656
181,0.016357421875,-0.0325927734375,0.86474609375,-0.6335877862595419,-3.618320610687023,0.15267175572519084,0.0023162364959716797
180,0.01318359375,-0.0357666015625,0.86962890625,-0.48854961832061067,-3.7404580152671754,0.2824427480916031,0.002464771270751953
180,0.022705078125,-0.0291748046875,0.86376953125,-0.5801526717557252,-3.786259541984733,0.13740458015267176,0.0023565292358398438
180,0.02490234375,-0.0303955078125,0.863037109375,-0.8778625954198473,-3.5877862595419847,0.13740458015267176,0.002318143844604492
180,0.018798828125,-0.0335693359375,0.867431640625,-0.7709923664122137,-4.0458015267175576,0.08396946564885496,0.0023152828216552734
179,0.02294921875,-0.0330810546875,0.857666015625,-0.7022900763358778,-3.519083969465649,0.030534351145038167,0.002315521240234375
180,0.019775390625,-0.0316162109375,0.8544921875,-0.8320610687022901,-3.5267175572519083,0.15267175572519084,0.002315998077392578
180,0.020263671875,-0.0311279296875,0.8701171875,-0.6946564885496184,-3.9770992366412212,-0.09923664122137404,0.0023136138916015625
180,0.0244140625,-0.0360107421875,0.862060546875,-0.7175572519083969,-3.648854961832061,0.0916030534351145,0.0023145675659179688
180,0.0244140625,-0.0321044921875,0.8583984375,-0.8931297709923665,-3.564885496183206,0.19083969465648856,0.0023145675659179688
180,0.020263671875,-0.0333251953125,0.861572265625,-0.549618320610687,-3.9923664122137406,-0.030534351145038167,0.0023136138916015625
180,0.016845703125,-0.0306396484375,0.857421875,-0.5267175572519084,-3.633587786259542,-0.015267175572519083,0.0023145675659179688
180,0.0205078125,-0.0284423828125,0.856201171875,-0.7251908396946565,-3.648854961832061,0.1450381679389313,0.002315521240234375
181,0.017333984375,-0.0355224609375,0.865234375,-0.5572519083969466,-3.9389312977099236,-0.007633587786259542,0.002315044403076172
180,0.0224609375,-0.0345458984375,0.86376953125,-0.7480916030534351,-3.450381679389313,0.09923664122137404,0.002314329147338867
181,0.019775390625,-0.0333251953125,0.870361328125,-0.6412213740458015,-4.030534351145038,0.16030534351145037,0.002314329147338867
180,0.020751953125,-0.0340576171875,0.86474609375,-0.7251908396946565,-3.7251908396946565,0.015267175572519083,0.002313852310180664
180,0.018798828125,-0.0316162109375,0.873291015625,-0.4122137404580153,-3.6259541984732824,0.10687022900763359,0.0023140907287597656
181,0.02197265625,-0.0384521484375,0.86328125,-0.5419847328244275,-3.687022900763359,0.007633587786259542,0.002315521240234375
181,0.01904296875,-0.0374755859375,0.865478515625,-0.549618320610687,-4.030534351145038,-0.030534351145038167,0.002313375473022461
181,0.0185546875,-0.0311279296875,0.862548828125,-0.5725190839694656,-3.717557251908397,0.030534351145038167,0.002314329147338867
181,0.01904296875,-0.0277099609375,0.867919921875,-0.6106870229007634,-3.9923664122137406,0.1450381679389313,0.0023126602172851562
181,0.0234375,-0.0289306640625,0.865234375,-0.6717557251908397,-3.801526717557252,-0.21374045801526717,0.002313852310180664
180,0.02392578125,-0.0313720703125,0.861572265625,-0.6870229007633588,-3.8396946564885495,0.1450381679389313,0.002313852310180664
180,0.018310546875,-0.0362548828125,0.846435546875,-0.6259541984732825,-3.763358778625954,0.31297709923664124,0.002314329147338867
180,0.01611328125,-0.0338134765625,0.862060546875,-0.5877862595419847,-3.7404580152671754,0.03816793893129771,0.002314329147338867
180,0.019775390625,-0.0352783203125,0.86181640625,-0.7938931297709924,-3.984732824427481,-0.10687022900763359,0.0023136138916015625
181,0.023193359375,-0.0357666015625,0.854736328125,-0.8320610687022901,-3.732824427480916,0.32061068702290074,0.002315044403076172
181,0.022216796875,-0.0335693359375,0.858154296875,-0.9465648854961832,-3.763358778625954,-0.06870229007633588,0.0023140907287597656
181,0.02197265625,-0.0350341796875,0.861572265625,-0.648854961832061,-3.7709923664122136,0.2366412213740458,0.0023145675659179688
181,0.021484375,-0.0345458984375,0.86279296875,-0.8015267175572519,-3.954198473282443,0.1984732824427481,0.002313852310180664
181,0.016845703125,-0.0301513671875,0.866455078125,-0.4961832061068702,-3.7786259541984735,0.4198473282442748,0.0023136138916015625
181,0.015380859375,-0.0350341796875,0.865478515625,-0.35877862595419846,-3.5877862595419847,-0.17557251908396945,0.0023148059844970703
181,0.014404296875,-0.0330810546875,0.861328125,-0.5419847328244275,-3.8702290076335877,0.022900763358778626,0.0024514198303222656
181,0.0224609375,-0.0343017578125,0.858642578125,-0.5343511450381679,-3.8244274809160306,0.183206106870229,0.0023221969604492188
181,0.018798828125,-0.0308837890625,0.864990234375,-0.5877862595419847,-3.6412213740458017,0.061068702290076333,0.002319812774658203
182,0.021240234375,-0.0340576171875,0.8544921875,-0.6183206106870229,-3.7404580152671754,0.25190839694656486,0.0023145675659179688
181,0.01513671875,-0.0303955078125,0.857666015625,-0.5877862595419847,-3.7099236641221376,-0.05343511450381679,0.002315044403076172
181,0.0263671875,-0.0333251953125,0.873779296875,-0.7480916030534351,-3.877862595419847,0.007633587786259542,0.002313852310180664
182,0.022705078125,-0.0311279296875,0.8662109375,-0.7709923664122137,-3.6259541984732824,-0.061068702290076333,0.002313852310180664
181,0.016357421875,-0.0347900390625,0.865478515625,-0.8015267175572519,-3.9083969465648853,0.022900763358778626,0.0023140907287597656
181,0.022216796875,-0.0316162109375,0.8642578125,-0.8473282442748091,-3.8931297709923665,-0.015267175572519083,0.0023145675659179688
181,0.019775390625,-0.0357666015625,0.864990234375,-0.7862595419847328,-3.687022900763359,0.03816793893129771,0.002313375473022461
183,0.029541015625,-0.0355224609375,0.86865234375,-0.8778625954198473,-3.6106870229007635,0.03816793893129771,0.0023365020751953125
181,0.01953125,-0.0313720703125,0.87255859375,-0.8473282442748091,-3.801526717557252,0.015267175572519083,0.0023195743560791016
182,0.017333984375,-0.0384521484375,0.865966796875,-0.7633587786259542,-3.732824427480916,0.13740458015267176,0.002313852310180664
181,0.023681640625,-0.0318603515625,0.8642578125,-0.7022900763358778,-3.732824427480916,0.183206106870229,0.002315044403076172
181,0.0166015625,-0.0335693359375,0.86181640625,-0.7251908396946565,-3.946564885496183,0.015267175572519083,0.002313375473022461
182,0.021728515625,-0.0343017578125,0.859130859375,-0.4198473282442748,-3.6564885496183206,0.26717557251908397,0.0023145675659179688
182,0.0205078125,-0.0301513671875,0.869384765625,-0.6717557251908397,-3.6946564885496183,0.17557251908396945,0.002315998077392578
182,0.016357421875,-0.0333251953125,0.86474609375,-0.6870229007633588,-3.6946564885496183,0.030534351145038167,0.0023136138916015625
182,0.01953125,-0.0360107421875,0.86572265625,-0.6641221374045801,-4.015267175572519,0.0916030534351145,0.002315998077392578
182,0.015380859375,-0.0316162109375,0.86083984375,-0.648854961832061,-3.6106870229007635,0.22137404580152673,0.0023326873779296875
181,0.01806640625,-0.0323486328125,0.865966796875,-0.7709923664122137,-3.8473282442748094,0.16030534351145037,0.002438068389892578
182,0.02294921875,-0.0291748046875,0.85986328125,-0.5419847328244275,-3.801526717557252,0.03816793893129771,0.0023212432861328125
183,0.0244140625,-0.0262451171875,0.86865234375,-0.5801526717557252,-3.877862595419847,0.13740458015267176,0.0023207664489746094
181,0.019287109375,-0.0306396484375,0.8623046875,-0.6870229007633588,-3.8625954198473282,0.12213740458015267,0.0023152828216552734
182,0.021728515625,-0.0338134765625,0.862060546875,-0.7786259541984732,-3.6106870229007635,0.0,0.002312898635864258
182,0.016845703125,-0.0311279296875,0.863037109375,-0.7557251908396947,-3.8931297709923665,0.17557251908396945,0.0023148059844970703
183,0.013671875,-0.0335693359375,0.857421875,-0.7175572519083969,-3.9770992366412212,-0.061068702290076333,0.002313852310180664
183,0.01904296875,-0.0369873046875,0.8671875,-0.9312977099236641,-3.83206106870229,0.21374045801526717,0.0023148059844970703
182,0.021240234375,-0.0333251953125,0.863525390625,-0.9389312977099237,-3.816793893129771,-0.04580152671755725,0.0023148059844970703
182,0.021728515625,-0.0299072265625,0.857421875,-0.7175572519083969,-4.00763358778626,0.08396946564885496,0.002312898635864258
182,0.02197265625,-0.0335693359375,0.863525390625,-0.732824427480916,-3.854961832061069,0.08396946564885496,0.002314329147338867
183,0.01318359375,-0.0311279296875,0.859619140625,-0.9389312977099237,-3.8091603053435112,-0.06870229007633588,0.002313852310180664
182,0.021728515625,-0.0360107421875,0.8642578125,-0.6412213740458015,-3.7938931297709924,0.11450381679389313,0.0023148059844970703
182,0.0244140625,-0.0360107421875,0.86181640625,-0.5877862595419847,-3.717557251908397,0.1450381679389313,0.002314329147338867
182,0.021240234375,-0.0377197265625,0.87109375,-0.6793893129770993,-3.8091603053435112,0.03816793893129771,0.002315044403076172
183,0.015625,-0.0399169921875,0.865966796875,-0.45038167938931295,-3.732824427480916,0.04580152671755725,0.002315044403076172
183,0.021728515625,-0.0364990234375,0.871826171875,-0.5267175572519084,-3.854961832061069,0.06870229007633588,0.0023148059844970703
183,0.012451171875,-0.0374755859375,0.872802734375,-0.366412213740458,-3.8473282442748094,0.1450381679389313,0.0023152828216552734
183,0.01806640625,-0.0281982421875,0.864501953125,-0.6030534351145038,-3.732824427480916,0.29770992366412213,0.002315044403076172
182,0.02490234375,-0.0335693359375,0.853515625,-0.648854961832061,-3.83206106870229,-0.06870229007633588,0.0023148059844970703
183,0.0263671875,-0.0323486328125,0.863037109375,-0.5801526717557252,-3.687022900763359,0.04580152671755725,0.002313375473022461
183,0.02099609375,-0.0286865234375,0.855712890625,-0.6259541984732825,-3.7251908396946565,0.0916030534351145,0.002314329147338867
183,0.017822265625,-0.0323486328125,0.873046875,-0.8015267175572519,-3.854961832061069,0.0,0.0023145675659179688
183,0.021484375,-0.0355224609375,0.861083984375,-0.6183206106870229,-3.7786259541984735,0.07633587786259542,0.0023114681243896484
183,0.018798828125,-0.0330810546875,0.8583984375,-0.7175572519083969,-3.885496183206107,0.03816793893129771,0.005264997482299805
183,0.01953125,-0.0281982421875,0.85693359375,-0.816793893129771,-3.49618320610687,0.40458015267175573,0.002387523651123047
183,0.017333984375,-0.0325927734375,0.86572265625,-0.7633587786259542,-3.7786259541984735,-0.05343511450381679,0.0023338794708251953
184,0.016845703125,-0.0328369140625,0.864013671875,-0.5877862595419847,-3.6030534351145036,0.2824427480916031,0.0023221969604492188
184,0.01806640625,-0.0281982421875,0.8623046875,-0.7480916030534351,-3.6564885496183206,-0.007633587786259542,0.0023224353790283203
182,0.013916015625,-0.0360107421875,0.86083984375,-0.6870229007633588,-3.931297709923664,-0.03816793893129771,0.002322673797607422
183,0.01416015625,-0.0316162109375,0.86083984375,-0.5267175572519084,-3.7557251908396947,0.04580152671755725,0.0023207664489746094
183,0.023681640625,-0.0323486328125,0.86669921875,-0.4961832061068702,-3.7938931297709924,0.19083969465648856,0.0023195743560791016
184,0.016357421875,-0.0308837890625,0.857421875,-0.6030534351145038,-3.6106870229007635,0.061068702290076333,0.0023174285888671875
184,0.012451171875,-0.0321044921875,0.869140625,-0.5419847328244275,-3.9618320610687023,0.25190839694656486,0.0023190975189208984
184,0.014892578125,-0.0269775390625,0.869140625,-0.7404580152671756,-3.595419847328244,-0.015267175572519083,0.0023186206817626953
184,0.01904296875,-0.0362548828125,0.862548828125,-0.4732824427480916,-3.7022900763358777,0.08396946564885496,0.002335071563720703
185,0.016357421875,-0.0277099609375,0.867919921875,-0.6717557251908397,-3.9389312977099236,0.22137404580152673,0.0023193359375
184,0.014892578125,-0.0321044921875,0.86669921875,-0.9312977099236641,-3.8625954198473282,0.06870229007633588,0.0023169517517089844
183,0.02294921875,-0.0289306640625,0.863037109375,-0.9847328244274809,-3.6259541984732824,0.015267175572519083,0.0023179054260253906
184,0.022705078125,-0.0303955078125,0.861083984375,-1.0076335877862594,-3.7251908396946565,0.12213740458015267,0.0023179054260253906
184,0.018798828125,-0.0279541015625,0.855712890625,-0.7709923664122137,-4.038167938931298,0.1450381679389313,0.0023179054260253906
184,0.022216796875,-0.0343017578125,0.85986328125,-0.7938931297709924,-3.885496183206107,-0.1450381679389313,0.002317667007446289
184,0.02001953125,-0.0379638671875,0.8681640625,-0.9083969465648855,-3.7480916030534353,0.0,0.0023713111877441406
184,0.0224609375,-0.0408935546875,0.86279296875,-0.7022900763358778,-3.8473282442748094,-0.030534351145038167,0.0025682449340820312
186,0.01904296875,-0.0316162109375,0.860107421875,-0.7099236641221374,-3.7022900763358777,0.183206106870229,0.002337217330932617
184,0.02099609375,-0.0374755859375,0.85791015625,-0.732824427480916,-3.7251908396946565,0.2748091603053435,0.0023221969604492188
184,0.026123046875,-0.0350341796875,0.859619140625,-0.5419847328244275,-3.7938931297709924,-0.030534351145038167,0.0023212432861328125
184,0.0234375,-0.0338134765625,0.858154296875,-0.7022900763358778,-3.648854961832061,0.06870229007633588,0.0023202896118164062
184,0.01171875,-0.0321044921875,0.86279296875,-0.5877862595419847,-3.6030534351145036,0.19083969465648856,0.0023186206817626953
184,0.01904296875,-0.0343017578125,0.868408203125,-0.6717557251908397,-3.9160305343511452,0.22137404580152673,0.002317667007446289
184,0.015625,-0.0362548828125,0.86376953125,-0.4351145038167939,-3.717557251908397,0.17557251908396945,0.0023183822631835938
184,0.01513671875,-0.0325927734375,0.860107421875,-0.4351145038167939,-4.00763358778626,0.030534351145038167,0.0023190975189208984
184,0.017822265625,-0.0294189453125,0.865966796875,-0.6259541984732825,-4.038167938931298,0.0,0.002318859100341797
183,0.01953125,-0.0269775390625,0.867919921875,-0.4961832061068702,-3.7480916030534353,0.25190839694656486,0.0023164749145507812
184,0.012939453125,-0.0318603515625,0.86328125,-0.3282442748091603,-3.885496183206107,0.015267175572519083,0.0023186206817626953
184,0.010498046875,-0.0308837890625,0.866943359375,-0.6106870229007634,-3.7404580152671754,0.07633587786259542,0.0023186206817626953
184,0.015869140625,-0.0257568359375,0.864501953125,-0.8015267175572519,-3.7480916030534353,0.07633587786259542,0.002317190170288086
184,0.018798828125,-0.0277099609375,0.8583984375,-0.5801526717557252,-3.854961832061069,0.31297709923664124,0.002365589141845703
184,0.013427734375,-0.0316162109375,0.8681640625,-1.0610687022900764,-3.6564885496183206,0.16030534351145037,0.0023450851440429688
184,0.01953125,-0.0313720703125,0.858154296875,-0.8778625954198473,-3.801526717557252,-0.12213740458015267,0.002321481704711914
185,0.022705078125,-0.0279541015625,0.8544921875,-0.8396946564885496,-3.9618320610687023,0.007633587786259542,0.0023202896118164062
185,0.014892578125,-0.0284423828125,0.86328125,-0.8320610687022901,-3.984732824427481,0.0916030534351145,0.002317667007446289
185,0.015380859375,-0.0323486328125,0.8671875,-0.9389312977099237,-3.7938931297709924,0.0916030534351145,0.002347707748413086
184,0.013671875,-0.0357666015625,0.865478515625,-0.6183206106870229,-3.7786259541984735,0.11450381679389313,0.002317190170288086
185,0.017822265625,-0.0328369140625,0.866943359375,-0.6793893129770993,-3.877862595419847,0.015267175572519083,0.002317667007446289
184,0.017333984375,-0.0321044921875,0.855712890625,-0.6030534351145038,-3.49618320610687,0.1297709923664122,0.002318143844604492
184,0.0146484375,-0.0321044921875,0.85791015625,-0.5801526717557252,-3.763358778625954,0.10687022900763359,0.0023186206817626953
185,0.015380859375,-0.0377197265625,0.863037109375,-0.4732824427480916,-3.6793893129770994,0.07633587786259542,0.0023183822631835938
184,0.018310546875,-0.0355224609375,0.859130859375,-0.4198473282442748,-3.83206106870229,0.19083969465648856,0.0023169517517089844
184,0.012939453125,-0.0323486328125,0.8662109375,-0.46564885496183206,-3.7557251908396947,0.13740458015267176,0.0023200511932373047
184,0.01806640625,-0.0281982421875,0.873291015625,-0.5954198473282443,-3.717557251908397,0.2900763358778626,0.0023169517517089844
185,0.01123046875,-0.0318603515625,0.863037109375,-0.5954198473282443,-3.786259541984733,0.16030534351145037,0.0023179054260253906
185,0.021240234375,-0.0325927734375,0.860107421875,-0.5801526717557252,-3.7557251908396947,-0.022900763358778626,0.002317667007446289
184,0.022216796875,-0.0340576171875,0.85888671875,-0.6870229007633588,-3.954198473282443,0.06870229007633588,0.002317190170288086
184,0.013427734375,-0.0345458984375,0.86376953125,-0.8244274809160306,-3.5343511450381677,0.030534351145038167,0.002318143844604492
184,0.018798828125,-0.0313720703125,0.863525390625,-0.9465648854961832,-3.8091603053435112,0.08396946564885496,0.0023164749145507812
184,0.022216796875,-0.0382080078125,0.8671875,-0.7175572519083969,-3.6717557251908395,0.19083969465648856,0.0023169517517089844
184,0.01171875,-0.0350341796875,0.859375,-0.7633587786259542,-3.717557251908397,0.12213740458015267,0.0023169517517089844
184,0.016845703125,-0.0318603515625,0.864990234375,-0.7557251908396947,-3.877862595419847,0.04580152671755725,0.0023162364959716797
184,0.01953125,-0.0301513671875,0.858642578125,-0.732824427480916,-3.7404580152671754,0.04580152671755725,0.0023186206817626953
185,0.016845703125,-0.0308837890625,0.867431640625,-0.6564885496183206,-3.816793893129771,0.22137404580152673,0.0023169517517089844
185,0.01220703125,-0.0303955078125,0.867431640625,-0.7251908396946565,-3.786259541984733,0.10687022900763359,0.002317190170288086
183,0.0146484375,-0.0299072265625,0.864501953125,-0.6793893129770993,-3.83206106870229,0.1297709923664122,0.002316713333129883
184,0.01708984375,-0.0333251953125,0.864990234375,-0.8702290076335878,-3.6793893129770994,0.0916030534351145,0.002317190170288086
184,0.01904296875,-0.0325927734375,0.86767578125,-0.6946564885496184,-3.7786259541984735,0.11450381679389313,0.0023169517517089844
184,0.0166015625,-0.0299072265625,0.856201171875,-0.6335877862595419,-3.7938931297709924,0.0,0.002329587936401367
184,0.028076171875,-0.0338134765625,0.863525390625,-0.5877862595419847,-3.7404580152671754,0.26717557251908397,0.002317190170288086
184,0.01806640625,-0.0364990234375,0.86279296875,-0.45038167938931295,-3.885496183206107,-0.05343511450381679,0.0023162364959716797
184,0.015869140625,-0.0343017578125,0.864013671875,-0.5877862595419847,-3.877862595419847,0.0916030534351145,0.0023179054260253906
184,0.015625,-0.0343017578125,0.859619140625,-0.37404580152671757,-3.6717557251908395,0.1297709923664122,0.0023164749145507812
184,0.017333984375,-0.0347900390625,0.861328125,-0.48854961832061067,-4.00763358778626,0.09923664122137404,0.0023179054260253906
184,0.021728515625,-0.0306396484375,0.859130859375,-0.4122137404580153,-3.5114503816793894,0.07633587786259542,0.002317190170288086
184,0.022216796875,-0.0347900390625,0.856689453125,-0.5419847328244275,-3.66412213740458,0.12213740458015267,0.002315998077392578
184,0.017333984375,-0.0303955078125,0.863037109375,-0.5190839694656488,-4.0534351145038165,0.3053435114503817,0.0023183822631835938
185,0.02294921875,-0.0277099609375,0.860595703125,-0.6946564885496184,-3.6259541984732824,0.11450381679389313,0.002317190170288086
185,0.02197265625,-0.0308837890625,0.862060546875,-0.7786259541984732,-3.8091603053435112,-0.05343511450381679,0.002316713333129883
182,0.021728515625,-0.0308837890625,0.865478515625,-0.7099236641221374,-3.7404580152671754,0.022900763358778626,0.002318143844604492
184,0.01806640625,-0.0379638671875,0.859375,-0.8549618320610687,-3.984732824427481,0.07633587786259542,0.0023179054260253906
183,0.01806640625,-0.0284423828125,0.862060546875,-0.6106870229007634,-3.7404580152671754,0.26717557251908397,0.002317190170288086
185,0.023193359375,-0.0272216796875,0.867919921875,-0.7633587786259542,-3.8625954198473282,0.007633587786259542,0.0023157596588134766
184,0.02001953125,-0.0364990234375,0.865966796875,-0.5801526717557252,-3.885496183206107,0.15267175572519084,0.002316713333129883
184,0.0205078125,-0.0325927734375,0.85791015625,-0.5343511450381679,-3.6106870229007635,0.10687022900763359,0.002315998077392578
184,0.018798828125,-0.0325927734375,0.857666015625,-0.46564885496183206,-3.7404580152671754,0.1984732824427481,0.002317667007446289
184,0.013671875,-0.0330810546875,0.86328125,-0.6106870229007634,-3.6717557251908395,0.11450381679389313,0.002317667007446289
184,0.025390625,-0.0308837890625,0.86083984375,-0.46564885496183206,-3.7099236641221376,0.10687022900763359,0.0023157596588134766
184,0.019775390625,-0.0308837890625,0.869384765625,-0.6335877862595419,-3.8396946564885495,-0.022900763358778626,0.0023174285888671875
185,0.01904296875,-0.0328369140625,0.86669921875,-0.816793893129771,-3.5801526717557253,0.19083969465648856,0.002437114715576172
185,0.017333984375,-0.0338134765625,0.859130859375,-0.6946564885496184,-3.9770992366412212,-0.061068702290076333,0.00232696533203125
184,0.02294921875,-0.0323486328125,0.8583984375,-0.5954198473282443,-3.8702290076335877,-0.05343511450381679,0.0023202896118164062
183,0.01220703125,-0.0386962890625,0.856689453125,-0.6412213740458015,-3.931297709923664,0.22900763358778625,0.002319812774658203
185,0.0185546875,-0.0328369140625,0.863037109375,-0.7022900763358778,-3.732824427480916,-0.19083969465648856,0.0023183822631835938
184,0.0146484375,-0.0323486328125,0.85986328125,-0.8396946564885496,-3.6946564885496183,-0.007633587786259542,0.0023174285888671875
184,0.022216796875,-0.0321044921875,0.854736328125,-0.8015267175572519,-3.7099236641221376,0.030534351145038167,0.002318143844604492
184,0.019775390625,-0.0369873046875,0.8544921875,-0.6870229007633588,-3.900763358778626,-0.16030534351145037,0.0023162364959716797
185,0.01318359375,-0.0321044921875,0.860107421875,-0.8931297709923665,-3.6793893129770994,0.10687022900763359,0.002317190170288086
185,0.018798828125,-0.0321044921875,0.8662109375,-0.9083969465648855,-3.7709923664122136,0.061068702290076333,0.0023174285888671875
184,0.02001953125,-0.0360107421875,0.860107421875,-0.8854961832061069,-3.7099236641221376,-0.05343511450381679,0.0023169517517089844
184,0.0234375,-0.0325927734375,0.866943359375,-0.9465648854961832,-3.786259541984733,0.0916030534351145,0.0023179054260253906
184,0.014404296875,-0.0277099609375,0.868408203125,-0.9389312977099237,-3.7099236641221376,0.13740458015267176,0.0023152828216552734
184,0.0244140625,-0.0396728515625,0.87060546875,-0.6259541984732825,-3.900763358778626,0.05343511450381679,0.0023174285888671875
185,0.02294921875,-0.0294189453125,0.86181640625,-0.8091603053435115,-3.8625954198473282,-0.04580152671755725,0.0023164749145507812
185,0.0185546875,-0.0343017578125,0.859619140625,-0.44274809160305345,-3.7099236641221376,0.04580152671755725,0.0023183822631835938
185,0.024169921875,-0.0335693359375,0.8662109375,-0.6412213740458015,-3.717557251908397,0.030534351145038167,0.0023183822631835938
184,0.01611328125,-0.0343017578125,0.856689453125,-0.5648854961832062,-3.687022900763359,0.07633587786259542,0.002315521240234375
185,0.0146484375,-0.0377197265625,0.86083984375,-0.32061068702290074,-3.816793893129771,0.10687022900763359,0.0023162364959716797
185,0.01904296875,-0.0291748046875,0.858154296875,-0.5801526717557252,-3.8931297709923665,0.06870229007633588,0.002317190170288086
185,0.01904296875,-0.0364990234375,0.859130859375,-0.5572519083969466,-3.7251908396946565,0.2366412213740458,0.0023174285888671875
184,0.0146484375,-0.0279541015625,0.857666015625,-0.6106870229007634,-3.7022900763358777,-0.09923664122137404,0.002317190170288086
185,0.02197265625,-0.0316162109375,0.859619140625,-0.8320610687022901,-3.8931297709923665,0.08396946564885496,0.0023174285888671875
184,0.0205078125,-0.0306396484375,0.856201171875,-0.4961832061068702,-3.7251908396946565,-0.10687022900763359,0.002317190170288086
185,0.016845703125,-0.0333251953125,0.860107421875,-0.8244274809160306,-3.687022900763359,0.061068702290076333,0.0023169517517089844
184,0.017822265625,-0.0308837890625,0.864990234375,-0.7786259541984732,-3.83206106870229,0.12213740458015267,0.002317667007446289
185,0.016357421875,-0.0296630859375,0.872314453125,-0.6641221374045801,-3.7786259541984735,0.10687022900763359,0.002316713333129883
184,0.0244140625,-0.0289306640625,0.85986328125,-0.5267175572519084,-3.5801526717557253,0.04580152671755725,0.0023174285888671875
185,0.018310546875,-0.0360107421875,0.870361328125,-0.5725190839694656,-3.7251908396946565,0.31297709923664124,0.002317667007446289
185,0.0146484375,-0.0264892578125,0.847412109375,-0.7251908396946565,-3.5572519083969465,-0.10687022900763359,0.0023169517517089844
184,0.0146484375,-0.0338134765625,0.858642578125,-0.5954198473282443,-3.732824427480916,0.2824427480916031,0.002318143844604492
185,0.021728515625,-0.0301513671875,0.866943359375,-0.7404580152671756,-3.7786259541984735,-0.16030534351145037,0.0023162364959716797
184,0.013671875,-0.0294189453125,0.870361328125,-0.6793893129770993,-3.6793893129770994,0.06870229007633588,0.0023174285888671875
185,0.019775390625,-0.0352783203125,0.859619140625,-0.5725190839694656,-3.763358778625954,0.0916030534351145,0.002316713333129883
185,0.01708984375,-0.0299072265625,0.869140625,-0.6030534351145038,-3.9083969465648853,0.05343511450381679,0.0023174285888671875
185,0.016845703125,-0.0325927734375,0.86572265625,-0.5877862595419847,-3.8473282442748094,0.03816793893129771,0.0023174285888671875
184,0.01806640625,-0.0308837890625,0.8623046875,-0.6946564885496184,-3.786259541984733,0.0,0.002315998077392578
185,0.0234375,-0.0338134765625,0.868408203125,-0.5419847328244275,-3.7557251908396947,0.007633587786259542,0.00232696533203125
184,0.019775390625,-0.0321044921875,0.859130859375,-0.549618320610687,-3.7938931297709924,0.10687022900763359,0.002322673797607422
184,0.026611328125,-0.0338134765625,0.864013671875,-0.6030534351145038,-3.6717557251908395,0.22900763358778625,0.002318859100341797
184,0.02197265625,-0.0347900390625,0.8603515625,-0.732824427480916,-3.7709923664122136,0.007633587786259542,0.002335786819458008
184,0.02197265625,-0.0333251953125,0.858154296875,-0.7786259541984732,-3.7022900763358777,0.13740458015267176,0.002318143844604492
186,0.02197265625,-0.0323486328125,0.857666015625,-0.916030534351145,-3.6717557251908395,0.05343511450381679,0.0023183822631835938
184,0.018310546875,-0.0367431640625,0.867919921875,-0.7938931297709924,-3.8091603053435112,0.05343511450381679,0.002317190170288086
184,0.021484375,-0.0338134765625,0.866943359375,-0.8015267175572519,-3.7709923664122136,0.1297709923664122,0.002317667007446289
185,0.017333984375,-0.0372314453125,0.865234375,-0.8931297709923665,-3.6030534351145036,-0.05343511450381679,0.002316713333129883
184,0.021240234375,-0.0338134765625,0.869384765625,-0.6793893129770993,-3.8625954198473282,0.3435114503816794,0.002317190170288086
184,0.01904296875,-0.0335693359375,0.86083984375,-0.7786259541984732,-3.8091603053435112,-0.04580152671755725,0.002328634262084961
184,0.0205078125,-0.0311279296875,0.87158203125,-0.7099236641221374,-3.9618320610687023,0.061068702290076333,0.0023202896118164062
185,0.0244140625,-0.0267333984375,0.861328125,-0.44274809160305345,-3.687022900763359,0.05343511450381679,0.002318859100341797
185,0.017333984375,-0.0330810546875,0.8603515625,-0.6259541984732825,-3.9236641221374047,0.015267175572519083,0.0023169517517089844
184,0.020263671875,-0.0360107421875,0.866943359375,-0.6946564885496184,-3.8473282442748094,0.19083969465648856,0.0023174285888671875
184,0.013916015625,-0.0372314453125,0.867431640625,-0.6412213740458015,-3.7480916030534353,0.05343511450381679,0.002317190170288086
184,0.0166015625,-0.0325927734375,0.8662109375,-0.4961832061068702,-3.5801526717557253,0.16793893129770993,0.0023174285888671875
184,0.02099609375,-0.0294189453125,0.8583984375,-0.6106870229007634,-3.7786259541984735,-0.030534351145038167,0.002362489700317383
185,0.01611328125,-0.0330810546875,0.86328125,-0.7404580152671756,-3.6946564885496183,0.05343511450381679,0.002386331558227539
184,0.0185546875,-0.0379638671875,0.858642578125,-0.7404580152671756,-3.900763358778626,0.15267175572519084,0.002323150634765625
184,0.021240234375,-0.0330810546875,0.86083984375,-0.5954198473282443,-3.8473282442748094,0.0,0.0023179054260253906
184,0.021728515625,-0.0333251953125,0.863037109375,-0.7709923664122137,-3.801526717557252,0.19083969465648856,0.002316713333129883
185,0.01904296875,-0.0343017578125,0.86962890625,-0.7099236641221374,-3.7480916030534353,0.11450381679389313,0.002318859100341797
184,0.021728515625,-0.0325927734375,0.85693359375,-0.7099236641221374,-3.7251908396946565,0.10687022900763359,0.002317667007446289
184,0.020263671875,-0.0316162109375,0.8603515625,-0.7709923664122137,-3.8702290076335877,0.2900763358778626,0.0023186206817626953
184,0.01904296875,-0.0284423828125,0.86181640625,-0.7251908396946565,-3.8702290076335877,0.12213740458015267,0.0023775100708007812
185,0.01953125,-0.0303955078125,0.864501953125,-0.6870229007633588,-3.8091603053435112,0.15267175572519084,0.0024683475494384766
184,0.017333984375,-0.0296630859375,0.85693359375,-0.7633587786259542,-3.900763358778626,0.16030534351145037,0.0023660659790039062
184,0.018798828125,-0.0347900390625,0.861083984375,-0.5572519083969466,-3.633587786259542,0.12213740458015267,0.002317667007446289
184,0.01806640625,-0.0321044921875,0.8701171875,-0.9236641221374046,-3.854961832061069,-0.32061068702290074,0.0023190975189208984
183,0.022216796875,-0.0316162109375,0.87255859375,-0.5114503816793893,-3.6946564885496183,0.10687022900763359,0.0023169517517089844
184,0.020751953125,-0.0333251953125,0.864501953125,-0.5877862595419847,-3.7786259541984735,0.06870229007633588,0.0023169517517089844
184,0.022705078125,-0.0352783203125,0.863525390625,-0.5038167938931297,-3.83206106870229,0.022900763358778626,0.0023169517517089844
184,0.014404296875,-0.0401611328125,0.8662109375,-0.3435114503816794,-3.687022900763359,-0.061068702290076333,0.0023183822631835938
183,0.0185546875,-0.0313720703125,0.870361328125,-0.366412213740458,-3.8091603053435112,0.061068702290076333,0.002318143844604492
183,0.023193359375,-0.0330810546875,0.857177734375,-0.4351145038167939,-3.7480916030534353,0.061068702290076333,0.0024204254150390625
184,0.01904296875,-0.0301513671875,0.8662109375,-0.5725190839694656,-3.6564885496183206,0.030534351145038167,0.002329111099243164
184,0.024169921875,-0.0338134765625,0.864501953125,-0.6870229007633588,-3.7099236641221376,0.06870229007633588,0.0023190975189208984
184,0.01708984375,-0.0369873046875,0.8544921875,-0.5419847328244275,-3.816793893129771,-0.09923664122137404,0.0023186206817626953
183,0.028076171875,-0.0345458984375,0.861083984375,-0.8931297709923665,-3.7786259541984735,0.13740458015267176,0.0023183822631835938
184,0.017578125,-0.0316162109375,0.86328125,-0.6793893129770993,-3.6106870229007635,0.19083969465648856,0.002317667007446289
183,0.012451171875,-0.0345458984375,0.865966796875,-0.7786259541984732,-3.732824427480916,-0.022900763358778626,0.002317667007446289
184,0.01806640625,-0.0294189453125,0.87451171875,-1.0,-3.885496183206107,0.11450381679389313,0.0023169517517089844
184,0.019287109375,-0.0328369140625,0.867919921875,-0.9083969465648855,-3.687022900763359,0.007633587786259542,0.002316713333129883
183,0.02099609375,-0.0330810546875,0.8583984375,-0.7862595419847328,-3.6106870229007635,0.11450381679389313,0.0023174285888671875
184,0.021728515625,-0.0323486328125,0.866455078125,-0.5954198473282443,-3.7404580152671754,0.22900763358778625,0.0023179054260253906
183,0.018310546875,-0.0303955078125,0.85546875,-0.5267175572519084,-3.7251908396946565,0.1450381679389313,0.002318143844604492
184,0.023193359375,-0.0279541015625,0.867431640625,-0.8091603053435115,-3.7480916030534353,0.007633587786259542,0.002316713333129883
184,0.016845703125,-0.0362548828125,0.863525390625,-0.5419847328244275,-3.6106870229007635,0.030534351145038167,0.002317190170288086
183,0.023681640625,-0.0284423828125,0.857666015625,-0.6717557251908397,-3.6412213740458017,0.09923664122137404,0.0023169517517089844
183,0.013671875,-0.0362548828125,0.869873046875,-0.6259541984732825,-3.763358778625954,0.007633587786259542,0.0023179054260253906
184,0.022216796875,-0.0338134765625,0.866943359375,-0.4961832061068702,-3.7709923664122136,0.1984732824427481,0.0023169517517089844
183,0.02001953125,-0.0291748046875,0.858642578125,-0.5954198473282443,-3.763358778625954,0.05343511450381679,0.002317190170288086
183,0.015869140625,-0.0299072265625,0.867919921875,-0.44274809160305345,-3.687022900763359,0.08396946564885496,0.002317667007446289
183,0.019775390625,-0.0372314453125,0.857177734375,-0.7022900763358778,-3.854961832061069,0.3893129770992366,0.0023162364959716797
183,0.010009765625,-0.0308837890625,0.86572265625,-0.7480916030534351,-3.5877862595419847,-0.022900763358778626,0.0023169517517089844
183,0.016357421875,-0.0281982421875,0.869384765625,-0.6106870229007634,-3.7404580152671754,0.030534351145038167,0.002317190170288086
183,0.015869140625,-0.0306396484375,0.875,-0.9236641221374046,-3.8625954198473282,0.11450381679389313,0.002316713333129883
183,0.02490234375,-0.0367431640625,0.869873046875,-0.7175572519083969,-3.6717557251908395,0.26717557251908397,0.002316713333129883
183,0.013671875,-0.0362548828125,0.87158203125,-0.7633587786259542,-3.885496183206107,0.06870229007633588,0.0023164749145507812
184,0.015869140625,-0.0299072265625,0.87060546875,-0.6870229007633588,-3.8473282442748094,-0.030534351145038167,0.0023169517517089844
183,0.016357421875,-0.0338134765625,0.85986328125,-0.6793893129770993,-3.7404580152671754,0.007633587786259542,0.002317667007446289
182,0.019775390625,-0.0338134765625,0.8671875,-0.8854961832061069,-3.854961832061069,-0.061068702290076333,0.002317190170288086
184,0.017578125,-0.0313720703125,0.866455078125,-0.7175572519083969,-3.6030534351145036,0.10687022900763359,0.0023169517517089844
183,0.01611328125,-0.0306396484375,0.85107421875,-0.7786259541984732,-3.8244274809160306,0.2366412213740458,0.0023174285888671875
183,0.016357421875,-0.0350341796875,0.85986328125,-0.6335877862595419,-4.015267175572519,0.03816793893129771,0.0023174285888671875
183,0.019775390625,-0.0316162109375,0.865478515625,-0.9007633587786259,-3.6412213740458017,0.03816793893129771,0.0023164749145507812
183,0.02197265625,-0.0306396484375,0.867431640625,-0.6870229007633588,-3.7709923664122136,0.06870229007633588,0.002318859100341797
183,0.021728515625,-0.0360107421875,0.862060546875,-0.6259541984732825,-4.022900763358779,0.07633587786259542,0.002316713333129883
183,0.013671875,-0.0352783203125,0.87158203125,-0.6335877862595419,-3.564885496183206,0.0,0.002317190170288086
183,0.017333984375,-0.0294189453125,0.859619140625,-0.8091603053435115,-3.8625954198473282,0.1450381679389313,0.002342700958251953
183,0.013916015625,-0.0306396484375,0.8779296875,-0.5648854961832062,-3.984732824427481,0.06870229007633588,0.0023179054260253906
183,0.0146484375,-0.0316162109375,0.86328125,-0.5648854961832062,-3.8244274809160306,0.061068702290076333,0.0023179054260253906
184,0.022705078125,-0.0267333984375,0.862060546875,-0.6870229007633588,-3.480916030534351,0.13740458015267176,0.0023162364959716797
183,0.025146484375,-0.0321044921875,0.85791015625,-0.6870229007633588,-3.885496183206107,-0.12213740458015267,0.002317190170288086
184,0.021728515625,-0.0335693359375,0.859619140625,-0.8091603053435115,-3.7022900763358777,0.07633587786259542,0.0023169517517089844
183,0.027099609375,-0.0313720703125,0.857421875,-0.7786259541984732,-3.8396946564885495,0.26717557251908397,0.0023169517517089844
183,0.017578125,-0.0301513671875,0.856689453125,-0.8091603053435115,-3.854961832061069,0.007633587786259542,0.0023179054260253906
184,0.018310546875,-0.0325927734375,0.8701171875,-0.7786259541984732,-3.648854961832061,0.1450381679389313,0.002316713333129883
182,0.020751953125,-0.0333251953125,0.87109375,-0.9083969465648855,-3.816793893129771,0.05343511450381679,0.0023262500762939453
183,0.020263671875,-0.0308837890625,0.860107421875,-0.7786259541984732,-3.66412213740458,0.22137404580152673,0.002314329147338867
183,0.01611328125,-0.0335693359375,0.863037109375,-0.732824427480916,-3.7022900763358777,-0.007633587786259542,0.002317190170288086
182,0.01708984375,-0.0313720703125,0.868896484375,-0.6870229007633588,-3.648854961832061,0.08396946564885496,0.0023169517517089844
183,0.019287109375,-0.0301513671875,0.866943359375,-0.5801526717557252,-3.854961832061069,0.22900763358778625,0.002316713333129883
183,0.024169921875,-0.0291748046875,0.871826171875,-0.6564885496183206,-3.83206106870229,0.2595419847328244,0.002317190170288086
182,0.021484375,-0.0347900390625,0.86181640625,-0.6030534351145038,-3.717557251908397,0.19083969465648856,0.0023164749145507812
183,0.0205078125,-0.0350341796875,0.86083984375,-0.4580152671755725,-3.900763358778626,0.03816793893129771,0.002315998077392578
183,0.01318359375,-0.0313720703125,0.863037109375,-0.549618320610687,-3.931297709923664,-0.0916030534351145,0.0023169517517089844
183,0.023193359375,-0.0274658203125,0.867431640625,-0.29770992366412213,-3.8244274809160306,0.25190839694656486,0.0023179054260253906
182,0.025390625,-0.0311279296875,0.858154296875,-0.5114503816793893,-3.687022900763359,0.10687022900763359,0.0024216175079345703
183,0.021240234375,-0.0345458984375,0.860595703125,-0.8091603053435115,-3.8625954198473282,-0.022900763358778626,0.002323150634765625
183,0.02001953125,-0.0303955078125,0.85888671875,-0.6870229007633588,-3.7251908396946565,-0.0916030534351145,0.002319812774658203
183,0.013427734375,-0.0328369140625,0.869384765625,-0.7022900763358778,-3.9160305343511452,0.183206106870229,0.0023174285888671875
183,0.02099609375,-0.0308837890625,0.8583984375,-0.816793893129771,-3.6793893129770994,0.12213740458015267,0.002317667007446289
183,0.01904296875,-0.0306396484375,0.85888671875,-0.9236641221374046,-3.7938931297709924,0.06870229007633588,0.002315998077392578
182,0.0126953125,-0.0303955078125,0.863037109375,-0.7404580152671756,-3.687022900763359,0.183206106870229,0.002317190170288086
182,0.023193359375,-0.0306396484375,0.8671875,-0.6259541984732825,-3.9389312977099236,0.17557251908396945,0.002317667007446289
182,0.02099609375,-0.0367431640625,0.867431640625,-0.7709923664122137,-3.7480916030534353,0.07633587786259542,0.0023162364959716797
182,0.0224609375,-0.0369873046875,0.858154296875,-0.816793893129771,-3.8702290076335877,0.015267175572519083,0.0023183822631835938
184,0.01904296875,-0.0313720703125,0.857177734375,-0.816793893129771,-4.030534351145038,-0.061068702290076333,0.0023179054260253906
183,0.02392578125,-0.0355224609375,0.8525390625,-0.6564885496183206,-3.7709923664122136,0.030534351145038167,0.0023169517517089844
183,0.023681640625,-0.0364990234375,0.864501953125,-0.6030534351145038,-3.7022900763358777,0.16030534351145037,0.0023179054260253906
183,0.015380859375,-0.0318603515625,0.865478515625,-0.9007633587786259,-3.786259541984733,-0.015267175572519083,0.0023164749145507812
183,0.02001953125,-0.0308837890625,0.86328125,-0.6946564885496184,-3.763358778625954,0.07633587786259542,0.002317667007446289
183,0.015869140625,-0.0364990234375,0.867919921875,-0.6870229007633588,-3.9236641221374047,0.0,0.002315998077392578
183,0.026123046875,-0.0303955078125,0.858642578125,-0.6870229007633588,-3.786259541984733,0.12213740458015267,0.002315998077392578
183,0.01904296875,-0.0338134765625,0.862060546875,-0.5877862595419847,-3.9389312977099236,0.05343511450381679,0.002317667007446289
182,0.01806640625,-0.0362548828125,0.855712890625,-0.6870229007633588,-3.7786259541984735,-0.06870229007633588,0.002317667007446289
183,0.01806640625,-0.0321044921875,0.855712890625,-0.5114503816793893,-3.7557251908396947,0.21374045801526717,0.0023179054260253906
182,0.0205078125,-0.0279541015625,0.86181640625,-0.4732824427480916,-3.83206106870229,-0.022900763358778626,0.002317190170288086
183,0.018310546875,-0.0264892578125,0.865478515625,-0.5648854961832062,-3.6412213740458017,-0.05343511450381679,0.0023179054260253906
183,0.02001953125,-0.0328369140625,0.864990234375,-0.7480916030534351,-3.786259541984733,0.07633587786259542,0.002317667007446289
183,0.01171875,-0.0277099609375,0.8642578125,-0.7938931297709924,-3.595419847328244,-0.06870229007633588,0.0023164749145507812
183,0.02783203125,-0.0308837890625,0.86328125,-0.8091603053435115,-3.954198473282443,-0.015267175572519083,0.0023169517517089844
183,0.022705078125,-0.0286865234375,0.869873046875,-0.8473282442748091,-3.8091603053435112,0.2748091603053435,0.002317190170288086
183,0.01953125,-0.0338134765625,0.86376953125,-0.7633587786259542,-3.7709923664122136,-0.0916030534351145,0.0023179054260253906
183,0.012939453125,-0.0321044921875,0.864990234375,-0.8015267175572519,-3.9236641221374047,0.22900763358778625,0.0023162364959716797
183,0.022216796875,-0.0328369140625,0.853515625,-0.7099236641221374,-3.6259541984732824,0.0916030534351145,0.0023174285888671875
183,0.01953125,-0.0291748046875,0.8642578125,-0.5190839694656488,-3.7709923664122136,0.0,0.002317190170288086
183,0.02197265625,-0.0369873046875,0.8583984375,-0.5648854961832062,-3.7099236641221376,0.08396946564885496,0.002315521240234375
183,0.017578125,-0.0318603515625,0.86279296875,-0.4580152671755725,-3.6564885496183206,0.09923664122137404,0.0023179054260253906
179,0.019775390625,-0.0347900390625,0.8671875,-0.7709923664122137,-3.8625954198473282,0.08396946564885496,0.002315998077392578
182,0.01806640625,-0.0308837890625,0.86572265625,-0.5572519083969466,-3.7557251908396947,0.007633587786259542,0.0023174285888671875
183,0.021484375,-0.0384521484375,0.859375,-0.5114503816793893,-3.7251908396946565,-0.022900763358778626,0.002316713333129883
183,0.021484375,-0.0306396484375,0.870361328125,-0.4351145038167939,-3.732824427480916,-0.04580152671755725,0.0023162364959716797
182,0.009521484375,-0.0321044921875,0.86474609375,-0.7022900763358778,-3.83206106870229,0.3282442748091603,0.002316713333129883
182,0.016357421875,-0.0350341796875,0.870361328125,-0.5648854961832062,-3.732824427480916,-0.11450381679389313,0.002316713333129883
182,0.021484375,-0.0343017578125,0.86181640625,-0.7022900763358778,-3.549618320610687,-0.09923664122137404,0.002317667007446289
182,0.01708984375,-0.0345458984375,0.859619140625,-0.6946564885496184,-3.7557251908396947,0.12213740458015267,0.0023164749145507812
182,0.01806640625,-0.0321044921875,0.865478515625,-0.8549618320610687,-3.717557251908397,0.0,0.0023179054260253906
183,0.0244140625,-0.0286865234375,0.858154296875,-0.7786259541984732,-3.7709923664122136,0.061068702290076333,0.002315521240234375
182,0.0146484375,-0.0328369140625,0.860107421875,-0.8396946564885496,-4.083969465648855,-0.04580152671755725,0.0023174285888671875
183,0.018798828125,-0.0284423828125,0.863525390625,-0.8091603053435115,-3.7022900763358777,0.05343511450381679,0.002333402633666992
183,0.019775390625,-0.0343017578125,0.873779296875,-0.6412213740458015,-3.9389312977099236,0.16030534351145037,0.0023183822631835938
183,0.020751953125,-0.0343017578125,0.869873046875,-0.7709923664122137,-3.854961832061069,0.04580152671755725,0.0023183822631835938
182,0.025390625,-0.0330810546875,0.85791015625,-0.7709923664122137,-3.7022900763358777,0.11450381679389313,0.002363920211791992
182,0.015380859375,-0.0374755859375,0.867919921875,-0.7557251908396947,-3.801526717557252,0.13740458015267176,0.0023238658905029297
183,0.024169921875,-0.0377197265625,0.8603515625,-0.6717557251908397,-3.7022900763358777,0.1450381679389313,0.0023190975189208984
182,0.018798828125,-0.0391845703125,0.872314453125,-0.5267175572519084,-3.5877862595419847,0.11450381679389313,0.002318143844604492
182,0.01953125,-0.0379638671875,0.860107421875,-0.5190839694656488,-3.8396946564885495,0.20610687022900764,0.0023212432861328125
182,0.02099609375,-0.0343017578125,0.867919921875,-0.6793893129770993,-3.6564885496183206,0.09923664122137404,0.0023164749145507812
182,0.017333984375,-0.0335693359375,0.859130859375,-0.7557251908396947,-3.6106870229007635,0.22137404580152673,0.002317667007446289
182,0.0205078125,-0.0316162109375,0.86669921875,-0.5343511450381679,-3.763358778625954,0.061068702290076333,0.0023169517517089844
183,0.0205078125,-0.0321044921875,0.86181640625,-0.4961832061068702,-3.8396946564885495,0.11450381679389313,0.0023183822631835938
182,0.0166015625,-0.0343017578125,0.86279296875,-0.7709923664122137,-3.954198473282443,-0.06870229007633588,0.0023174285888671875
182,0.01611328125,-0.0352783203125,0.867431640625,-0.5725190839694656,-3.816793893129771,0.12213740458015267,0.002317667007446289
182,0.016845703125,-0.0284423828125,0.85400390625,-0.6717557251908397,-3.801526717557252,-0.13740458015267176,0.0023174285888671875
182,0.0185546875,-0.0340576171875,0.859619140625,-0.7938931297709924,-3.6030534351145036,0.015267175572519083,0.0023174285888671875
182,0.0185546875,-0.0311279296875,0.862060546875,-0.6870229007633588,-3.717557251908397,-0.10687022900763359,0.0023179054260253906
183,0.010986328125,-0.0357666015625,0.8671875,-0.7175572519083969,-3.9923664122137406,-0.03816793893129771,0.0023174285888671875
182,0.019287109375,-0.0384521484375,0.85888671875,-0.6717557251908397,-3.6259541984732824,-0.015267175572519083,0.002318143844604492
182,0.028076171875,-0.0369873046875,0.86376953125,-0.9007633587786259,-3.8931297709923665,0.03816793893129771,0.002318859100341797
182,0.0224609375,-0.0345458984375,0.856201171875,-0.8091603053435115,-3.7404580152671754,0.15267175572519084,0.0024330615997314453
182,0.02001953125,-0.0379638671875,0.863525390625,-0.7938931297709924,-3.6030534351145036,-0.06870229007633588,0.0023279190063476562
182,0.015380859375,-0.0303955078125,0.856689453125,-0.6946564885496184,-3.8091603053435112,-0.13740458015267176,0.0023195743560791016
182,0.015625,-0.0296630859375,0.865966796875,-0.6259541984732825,-3.5877862595419847,-0.04580152671755725,0.0023190975189208984
182,0.024658203125,-0.0328369140625,0.854248046875,-0.6564885496183206,-3.6793893129770994,0.015267175572519083,0.0023183822631835938
182,0.019775390625,-0.0333251953125,0.865478515625,-0.7480916030534351,-3.900763358778626,0.03816793893129771,0.0023190975189208984
182,0.017822265625,-0.0360107421875,0.862548828125,-0.6030534351145038,-3.6717557251908395,0.16793893129770993,0.0023183822631835938
181,0.021484375,-0.0343017578125,0.866455078125,-0.5954198473282443,-3.648854961832061,0.25190839694656486,0.0023174285888671875
182,0.0068359375,-0.0323486328125,0.8662109375,-0.6030534351145038,-3.900763358778626,0.05343511450381679,0.0023174285888671875
182,0.01171875,-0.0321044921875,0.865966796875,-0.5572519083969466,-3.7099236641221376,0.022900763358778626,0.0023179054260253906
182,0.024658203125,-0.0313720703125,0.859130859375,-0.5725190839694656,-3.9083969465648853,0.15267175572519084,0.002317667007446289
182,0.0185546875,-0.0325927734375,0.852294921875,-0.6641221374045801,-3.9160305343511452,0.13740458015267176,0.002318143844604492
182,0.024169921875,-0.0325927734375,0.86328125,-0.6335877862595419,-3.5801526717557253,0.20610687022900764,0.002316713333129883
182,0.02587890625,-0.0338134765625,0.869140625,-0.6946564885496184,-3.5419847328244276,0.0,0.0023179054260253906
182,0.017822265625,-0.0281982421875,0.871337890625,-0.7099236641221374,-3.618320610687023,0.007633587786259542,0.002315521240234375
181,0.02490234375,-0.0335693359375,0.85888671875,-0.9236641221374046,-3.816793893129771,0.0,0.0023179054260253906
182,0.0244140625,-0.0333251953125,0.857666015625,-0.7633587786259542,-3.5419847328244276,0.015267175572519083,0.0023152828216552734
181,0.019775390625,-0.0360107421875,0.8583984375,-0.8549618320610687,-3.717557251908397,0.08396946564885496,0.0023179054260253906
181,0.015869140625,-0.0257568359375,0.859375,-0.7480916030534351,-3.900763358778626,0.03816793893129771,0.0023183822631835938
181,0.020751953125,-0.0338134765625,0.868408203125,-0.6412213740458015,-3.801526717557252,0.1984732824427481,0.0023169517517089844
181,0.019287109375,-0.0301513671875,0.866943359375,-0.7557251908396947,-3.8244274809160306,0.05343511450381679,0.002317667007446289
181,0.021240234375,-0.0330810546875,0.87109375,-0.5038167938931297,-4.038167938931298,0.16793893129770993,0.0023174285888671875
181,0.02099609375,-0.0306396484375,0.872314453125,-0.5572519083969466,-3.8091603053435112,0.0916030534351145,0.0023164749145507812
181,0.02587890625,-0.0340576171875,0.863037109375,-0.5343511450381679,-3.8625954198473282,0.1450381679389313,0.002336740493774414
182,0.0185546875,-0.0269775390625,0.864501953125,-0.6183206106870229,-3.8702290076335877,0.2595419847328244,0.0023186206817626953
183,0.028076171875,-0.0225830078125,0.8642578125,-0.648854961832061,-3.66412213740458,-0.015267175572519083,0.0023190975189208984
181,0.018798828125,-0.0296630859375,0.86865234375,-0.6259541984732825,-3.801526717557252,-0.007633587786259542,0.0023164749145507812
181,0.017578125,-0.0321044921875,0.8671875,-0.7404580152671756,-3.8396946564885495,0.07633587786259542,0.002318143844604492
181,0.01708984375,-0.0347900390625,0.8623046875,-0.7404580152671756,-3.7557251908396947,0.09923664122137404,0.002316713333129883
181,0.02001953125,-0.0313720703125,0.863037109375,-0.6870229007633588,-3.595419847328244,0.1297709923664122,0.0023169517517089844
181,0.0205078125,-0.0311279296875,0.859375,-0.5801526717557252,-3.618320610687023,0.030534351145038167,0.002317190170288086
181,0.015869140625,-0.0369873046875,0.871826171875,-0.732824427480916,-3.885496183206107,-0.03816793893129771,0.0023157596588134766
181,0.016845703125,-0.0296630859375,0.861572265625,-0.7938931297709924,-3.7022900763358777,0.06870229007633588,0.002330303192138672
181,0.01904296875,-0.0306396484375,0.862548828125,-0.8015267175572519,-3.7404580152671754,0.2366412213740458,0.002317667007446289
181,0.022705078125,-0.0333251953125,0.864013671875,-0.9007633587786259,-3.7786259541984735,0.22137404580152673,0.0023169517517089844
181,0.01904296875,-0.0357666015625,0.8544921875,-0.7633587786259542,-3.763358778625954,0.12213740458015267,0.0023179054260253906
181,0.01904296875,-0.0306396484375,0.86474609375,-0.7709923664122137,-3.8625954198473282,0.03816793893129771,0.002316713333129883
181,0.02001953125,-0.0323486328125,0.864013671875,-0.7786259541984732,-3.6946564885496183,-0.0916030534351145,0.0023179054260253906
181,0.0205078125,-0.0333251953125,0.87109375,-0.549618320610687,-3.83206106870229,-0.061068702290076333,0.0023162364959716797
181,0.0166015625,-0.0396728515625,0.861328125,-0.8396946564885496,-3.801526717557252,0.0,0.0023169517517089844
181,0.023193359375,-0.0343017578125,0.861328125,-0.6793893129770993,-4.030534351145038,0.04580152671755725,0.0023152828216552734
181,0.01611328125,-0.0357666015625,0.865966796875,-0.5190839694656488,-3.9923664122137406,0.0,0.002317667007446289
184,0.019775390625,-0.0345458984375,0.8642578125,-0.5419847328244275,-3.8473282442748094,0.17557251908396945,0.002316713333129883
180,0.021240234375,-0.0316162109375,0.852783203125,-0.5114503816793893,-3.877862595419847,0.12213740458015267,0.0023157596588134766
181,0.02099609375,-0.0330810546875,0.862060546875,-0.6335877862595419,-3.9160305343511452,0.20610687022900764,0.0023179054260253906
181,0.02001953125,-0.0291748046875,0.8603515625,-0.6183206106870229,-3.877862595419847,-0.07633587786259542,0.002316713333129883
181,0.018798828125,-0.0318603515625,0.866455078125,-0.6641221374045801,-3.4656488549618323,0.183206106870229,0.002318143844604492
180,0.02197265625,-0.0318603515625,0.863037109375,-0.6106870229007634,-3.877862595419847,0.05343511450381679,0.002316713333129883
180,0.0146484375,-0.0318603515625,0.861328125,-0.9923664122137404,-3.6106870229007635,0.007633587786259542,0.002316713333129883
180,0.018798828125,-0.0281982421875,0.860107421875,-0.8625954198473282,-3.7938931297709924,0.06870229007633588,0.0023169517517089844
180,0.015869140625,-0.0296630859375,0.870849609375,-0.8244274809160306,-3.900763358778626,0.015267175572519083,0.0023162364959716797
181,0.018310546875,-0.0369873046875,0.865234375,-0.732824427480916,-3.8931297709923665,-0.04580152671755725,0.002317667007446289
180,0.01708984375,-0.0335693359375,0.861572265625,-0.816793893129771,-3.549618320610687,0.015267175572519083,0.0023174285888671875
180,0.025390625,-0.0328369140625,0.85498046875,-0.7862595419847328,-3.7709923664122136,0.05343511450381679,0.002317190170288086
180,0.016845703125,-0.0352783203125,0.864990234375,-0.7938931297709924,-3.8473282442748094,0.007633587786259542,0.0023162364959716797
180,0.0234375,-0.0294189453125,0.86181640625,-0.8778625954198473,-3.801526717557252,-0.04580152671755725,0.002316713333129883
180,0.023193359375,-0.0306396484375,0.863037109375,-0.6870229007633588,-3.885496183206107,0.0,0.002318143844604492
179,0.0205078125,-0.0296630859375,0.86083984375,-0.7557251908396947,-3.648854961832061,-0.11450381679389313,0.002315044403076172
180,0.0185546875,-0.0369873046875,0.859375,-0.7709923664122137,-3.9389312977099236,0.07633587786259542,0.002317190170288086
183,0.0283203125,-0.0313720703125,0.867431640625,-0.6412213740458015,-3.6793893129770994,0.1450381679389313,0.002315998077392578
180,0.02587890625,-0.0291748046875,0.863525390625,-0.5572519083969466,-3.66412213740458,0.022900763358778626,0.002317190170288086
179,0.02294921875,-0.0318603515625,0.8583984375,-0.648854961832061,-3.816793893129771,0.11450381679389313,0.002324819564819336
179,0.014892578125,-0.0357666015625,0.86572265625,-0.5114503816793893,-4.0,0.17557251908396945,0.0023164749145507812
179,0.01416015625,-0.0360107421875,0.86376953125,-0.5343511450381679,-3.7480916030534353,-0.10687022900763359,0.002317190170288086
180,0.025146484375,-0.0340576171875,0.86865234375,-0.549618320610687,-3.885496183206107,0.0,0.0024101734161376953
179,0.020263671875,-0.0330810546875,0.860595703125,-0.648854961832061,-3.8931297709923665,0.2366412213740458,0.0023238658905029297
180,0.0205078125,-0.0323486328125,0.86376953125,-0.5954198473282443,-3.9160305343511452,0.06870229007633588,0.0023183822631835938
180,0.027099609375,-0.0311279296875,0.869140625,-0.7099236641221374,-3.8473282442748094,0.022900763358778626,0.002317190170288086
179,0.022705078125,-0.0379638671875,0.86474609375,-0.648854961832061,-3.7938931297709924,0.2366412213740458,0.0023682117462158203
179,0.0244140625,-0.0286865234375,0.863525390625,-0.8015267175572519,-3.854961832061069,-0.06870229007633588,0.0023877620697021484
179,0.02294921875,-0.0301513671875,0.858642578125,-0.8549618320610687,-3.8702290076335877,0.007633587786259542,0.002330303192138672
180,0.02099609375,-0.0325927734375,0.86572265625,-0.6793893129770993,-3.7404580152671754,0.2366412213740458,0.0023193359375
179,0.017822265625,-0.0369873046875,0.85595703125,-0.648854961832061,-3.854961832061069,0.12213740458015267,0.002318143844604492
179,0.017578125,-0.0311279296875,0.868896484375,-0.8015267175572519,-3.885496183206107,0.3816793893129771,0.0023221969604492188
179,0.016845703125,-0.0318603515625,0.862548828125,-0.6717557251908397,-3.7251908396946565,0.06870229007633588,0.002316713333129883
180,0.02197265625,-0.0267333984375,0.8740234375,-0.5648854961832062,-3.763358778625954,0.21374045801526717,0.0023229122161865234
180,0.020751953125,-0.0335693359375,0.867431640625,-0.5801526717557252,-3.7022900763358777,-0.16793893129770993,0.002317190170288086
180,0.014892578125,-0.0308837890625,0.862060546875,-0.45038167938931295,-3.66412213740458,0.19083969465648856,0.002318143844604492
179,0.016357421875,-0.0294189453125,0.865478515625,-0.48854961832061067,-3.8244274809160306,-0.03816793893129771,0.002317190170288086
179,0.0234375,-0.0343017578125,0.8642578125,-0.45038167938931295,-3.8702290076335877,0.12213740458015267,0.002317667007446289
180,0.015869140625,-0.0369873046875,0.862060546875,-0.7175572519083969,-3.8625954198473282,-0.11450381679389313,0.002317190170288086
180,0.021484375,-0.0352783203125,0.86376953125,-0.7709923664122137,-3.8931297709923665,0.22137404580152673,0.002317667007446289
179,0.0205078125,-0.0321044921875,0.8681640625,-0.6793893129770993,-3.8091603053435112,0.10687022900763359,0.002317190170288086
180,0.02001953125,-0.0374755859375,0.861328125,-0.6564885496183206,-3.8625954198473282,0.2366412213740458,0.002315998077392578
179,0.017333984375,-0.0328369140625,0.866455078125,-0.6641221374045801,-3.7251908396946565,0.07633587786259542,0.0023157596588134766
179,0.017578125,-0.0291748046875,0.861572265625,-0.6793893129770993,-3.5343511450381677,0.015267175572519083,0.002318859100341797
179,0.015869140625,-0.0321044921875,0.8681640625,-0.8549618320610687,-3.83206106870229,0.24427480916030533,0.002315998077392578
179,0.01806640625,-0.0284423828125,0.865478515625,-0.7175572519083969,-4.00763358778626,0.11450381679389313,0.0023174285888671875
179,0.016357421875,-0.0294189453125,0.862548828125,-0.9083969465648855,-3.717557251908397,0.20610687022900764,0.0023164749145507812
179,0.017578125,-0.0377197265625,0.865966796875,-0.8473282442748091,-3.6793893129770994,0.13740458015267176,0.0023174285888671875
179,0.025390625,-0.0255126953125,0.857177734375,-1.0916030534351144,-3.648854961832061,-0.022900763358778626,0.002315998077392578
179,0.021484375,-0.0328369140625,0.8544921875,-0.8015267175572519,-3.885496183206107,0.07633587786259542,0.0023169517517089844
179,0.015380859375,-0.0367431640625,0.861083984375,-0.7480916030534351,-3.9236641221374047,0.03816793893129771,0.0023169517517089844
179,0.015625,-0.0357666015625,0.867431640625,-0.5954198473282443,-3.648854961832061,0.29770992366412213,0.0025010108947753906
179,0.0185546875,-0.0389404296875,0.860595703125,-0.6412213740458015,-3.7938931297709924,0.16030534351145037,0.002335071563720703
178,0.01904296875,-0.0313720703125,0.869873046875,-0.4198473282442748,-3.7404580152671754,0.07633587786259542,0.0023193359375
179,0.0205078125,-0.0330810546875,0.86083984375,-0.3282442748091603,-3.854961832061069,-0.19083969465648856,0.0023183822631835938
179,0.021240234375,-0.0296630859375,0.8623046875,-0.44274809160305345,-3.7938931297709924,0.17557251908396945,0.0023195743560791016
179,0.021484375,-0.0316162109375,0.86083984375,-0.6259541984732825,-3.595419847328244,-0.04580152671755725,0.002318143844604492
180,0.021240234375,-0.0299072265625,0.8681640625,-0.6106870229007634,-3.717557251908397,0.19083969465648856,0.0023174285888671875
179,0.023681640625,-0.0306396484375,0.8662109375,-0.7709923664122137,-3.8625954198473282,0.015267175572519083,0.0023169517517089844
179,0.020751953125,-0.0299072265625,0.85546875,-0.6870229007633588,-3.6259541984732824,-0.022900763358778626,0.0023186206817626953
182,0.025634765625,-0.0303955078125,0.873779296875,-0.7557251908396947,-3.7404580152671754,0.0,0.0023174285888671875
178,0.01513671875,-0.0313720703125,0.859375,-0.5725190839694656,-3.7938931297709924,0.16030534351145037,0.0023169517517089844
179,0.02099609375,-0.0296630859375,0.86767578125,-0.8244274809160306,-3.6717557251908395,-0.03816793893129771,0.0023174285888671875
179,0.0205078125,-0.0338134765625,0.862548828125,-0.8473282442748091,-3.7251908396946565,0.366412213740458,0.0023174285888671875
178,0.022216796875,-0.0369873046875,0.863525390625,-0.8625954198473282,-3.9236641221374047,0.022900763358778626,0.0023164749145507812
179,0.016357421875,-0.0379638671875,0.865966796875,-0.9847328244274809,-3.717557251908397,0.10687022900763359,0.0023179054260253906
179,0.017333984375,-0.0313720703125,0.865478515625,-0.6793893129770993,-3.572519083969466,0.08396946564885496,0.002317667007446289
179,0.017333984375,-0.0299072265625,0.877685546875,-0.732824427480916,-3.732824427480916,-0.0916030534351145,0.0023164749145507812
179,0.0185546875,-0.0340576171875,0.864501953125,-0.8320610687022901,-3.717557251908397,0.16793893129770993,0.0023169517517089844
179,0.0166015625,-0.0311279296875,0.866943359375,-0.6335877862595419,-3.732824427480916,-0.05343511450381679,0.0023174285888671875
179,0.015625,-0.0379638671875,0.8583984375,-0.732824427480916,-3.5801526717557253,-0.05343511450381679,0.002316713333129883
178,0.025390625,-0.0318603515625,0.865966796875,-0.4961832061068702,-3.687022900763359,0.022900763358778626,0.0023279190063476562
179,0.01904296875,-0.0301513671875,0.861083984375,-0.5801526717557252,-3.717557251908397,0.13740458015267176,0.0023190975189208984
179,0.019775390625,-0.0355224609375,0.87109375,-0.6030534351145038,-3.816793893129771,-0.05343511450381679,0.002319812774658203
179,0.020751953125,-0.0325927734375,0.873779296875,-0.5190839694656488,-3.854961832061069,0.10687022900763359,0.0023179054260253906
179,0.018798828125,-0.0340576171875,0.86328125,-0.6106870229007634,-3.6412213740458017,0.13740458015267176,0.0023179054260253906
178,0.0205078125,-0.0323486328125,0.8642578125,-0.5725190839694656,-3.786259541984733,0.007633587786259542,0.002316713333129883
179,0.0185546875,-0.0343017578125,0.85693359375,-0.6564885496183206,-3.7480916030534353,0.1297709923664122,0.0023157596588134766
179,0.022216796875,-0.0328369140625,0.8642578125,-0.6259541984732825,-3.5801526717557253,0.10687022900763359,0.002317190170288086
178,0.0185546875,-0.0340576171875,0.8720703125,-0.7633587786259542,-3.7480916030534353,0.07633587786259542,0.0023169517517089844
178,0.01513671875,-0.0328369140625,0.86328125,-0.7404580152671756,-3.8931297709923665,-0.030534351145038167,0.002316713333129883
178,0.01806640625,-0.0369873046875,0.8603515625,-0.9541984732824428,-4.00763358778626,0.2595419847328244,0.002317667007446289
178,0.018798828125,-0.0284423828125,0.860595703125,-0.8931297709923665,-3.7099236641221376,0.030534351145038167,0.0023162364959716797
178,0.0205078125,-0.0357666015625,0.86083984375,-0.7938931297709924,-3.687022900763359,0.2595419847328244,0.0023169517517089844
178,0.020263671875,-0.0318603515625,0.856201171875,-0.7251908396946565,-3.8702290076335877,-0.08396946564885496,0.0023162364959716797
179,0.01806640625,-0.0289306640625,0.867919921875,-0.6335877862595419,-3.900763358778626,-0.03816793893129771,0.0024688243865966797
179,0.020263671875,-0.0284423828125,0.861083984375,-0.6946564885496184,-3.7404580152671754,0.1297709923664122,0.0023283958435058594
179,0.021728515625,-0.0294189453125,0.87353515625,-0.5877862595419847,-3.6793893129770994,0.2824427480916031,0.0023186206817626953
178,0.0185546875,-0.0301513671875,0.865478515625,-0.5954198473282443,-3.83206106870229,0.04580152671755725,0.002318143844604492
178,0.0205078125,-0.0352783203125,0.85986328125,-0.648854961832061,-3.877862595419847,0.13740458015267176,0.002316713333129883
178,0.025390625,-0.0313720703125,0.86328125,-0.46564885496183206,-3.6717557251908395,0.05343511450381679,0.002317190170288086
178,0.017578125,-0.0294189453125,0.864013671875,-0.7786259541984732,-3.8396946564885495,0.06870229007633588,0.0023164749145507812
179,0.025390625,-0.0294189453125,0.86279296875,-0.5725190839694656,-3.7938931297709924,-0.015267175572519083,0.0023164749145507812
179,0.02392578125,-0.0291748046875,0.86669921875,-0.6259541984732825,-3.7251908396946565,0.022900763358778626,0.002317190170288086
179,0.016357421875,-0.0364990234375,0.86572265625,-0.6335877862595419,-3.6030534351145036,0.015267175572519083,0.002317190170288086
178,0.01806640625,-0.0347900390625,0.862060546875,-0.8015267175572519,-3.8396946564885495,0.03816793893129771,0.002316713333129883
178,0.022705078125,-0.0338134765625,0.869140625,-0.7022900763358778,-3.6717557251908395,0.183206106870229,0.004857301712036133
178,0.023681640625,-0.0303955078125,0.857666015625,-0.6793893129770993,-3.7099236641221376,-0.08396946564885496,0.002330780029296875
178,0.018310546875,-0.0303955078125,0.860107421875,-0.7251908396946565,-3.5267175572519083,0.061068702290076333,0.002321958541870117
178,0.020263671875,-0.0345458984375,0.860107421875,-0.8396946564885496,-3.7404580152671754,0.25190839694656486,0.002321958541870117
179,0.02490234375,-0.0362548828125,0.855712890625,-0.9389312977099237,-3.618320610687023,0.022900763358778626,0.0023217201232910156
178,0.016357421875,-0.0284423828125,0.866455078125,-0.7251908396946565,-3.900763358778626,0.3053435114503817,0.0023217201232910156
178,0.014404296875,-0.0352783203125,0.856201171875,-0.7099236641221374,-3.83206106870229,-0.1450381679389313,0.002354860305786133
178,0.013916015625,-0.0333251953125,0.859130859375,-0.6259541984732825,-3.6946564885496183,-0.13740458015267176,0.0023233890533447266
178,0.01806640625,-0.0303955078125,0.863037109375,-0.48091603053435117,-3.83206106870229,0.06870229007633588,0.0023217201232910156
179,0.01904296875,-0.0311279296875,0.864990234375,-0.45038167938931295,-3.7786259541984735,0.1984732824427481,0.002318143844604492
179,0.02099609375,-0.0352783203125,0.866455078125,-0.6106870229007634,-3.7404580152671754,0.1297709923664122,0.0023193359375
178,0.0185546875,-0.0367431640625,0.869384765625,-0.5114503816793893,-3.6717557251908395,0.061068702290076333,0.002318143844604492
178,0.014892578125,-0.0316162109375,0.86376953125,-0.48854961832061067,-3.8702290076335877,0.2900763358778626,0.0023186206817626953
178,0.01953125,-0.0296630859375,0.848388671875,-0.4732824427480916,-3.7786259541984735,-0.015267175572519083,0.0023202896118164062
179,0.0224609375,-0.0347900390625,0.861328125,-0.7786259541984732,-3.984732824427481,0.08396946564885496,0.0023183822631835938
178,0.024169921875,-0.0316162109375,0.863037109375,-0.7709923664122137,-3.6412213740458017,0.022900763358778626,0.0023183822631835938
179,0.021484375,-0.0325927734375,0.868408203125,-0.9083969465648855,-3.7557251908396947,0.15267175572519084,0.0023186206817626953
179,0.0205078125,-0.0352783203125,0.861083984375,-0.7938931297709924,-3.9236641221374047,0.2595419847328244,0.002318143844604492
179,0.021728515625,-0.0303955078125,0.862548828125,-0.732824427480916,-3.931297709923664,0.15267175572519084,0.0023164749145507812
177,0.026123046875,-0.0338134765625,0.864013671875,-0.7633587786259542,-3.6946564885496183,-0.11450381679389313,0.002318143844604492
179,0.015380859375,-0.0269775390625,0.861572265625,-0.732824427480916,-3.786259541984733,0.007633587786259542,0.002318859100341797
178,0.01611328125,-0.0279541015625,0.867431640625,-0.816793893129771,-3.8625954198473282,-0.03816793893129771,0.0023174285888671875
178,0.023193359375,-0.0374755859375,0.864501953125,-0.7480916030534351,-3.900763358778626,0.007633587786259542,0.0023190975189208984
179,0.024169921875,-0.0313720703125,0.862060546875,-0.8931297709923665,-3.687022900763359,-0.015267175572519083,0.0023183822631835938
178,0.01953125,-0.0384521484375,0.855712890625,-0.8091603053435115,-3.7404580152671754,-0.022900763358778626,0.002318859100341797
178,0.017822265625,-0.0299072265625,0.876220703125,-0.8091603053435115,-3.618320610687023,0.04580152671755725,0.0023179054260253906
178,0.01953125,-0.0335693359375,0.8603515625,-0.5725190839694656,-3.6564885496183206,-0.03816793893129771,0.002317190170288086
179,0.022216796875,-0.0316162109375,0.864013671875,-0.5725190839694656,-3.633587786259542,0.2748091603053435,0.0023179054260253906
178,0.015625,-0.0340576171875,0.858154296875,-0.45038167938931295,-3.7786259541984735,0.16030534351145037,0.0023179054260253906
179,0.022216796875,-0.0357666015625,0.867431640625,-0.6412213740458015,-3.8625954198473282,0.26717557251908397,0.002317190170288086
178,0.0185546875,-0.0294189453125,0.86181640625,-0.6793893129770993,-3.8625954198473282,0.08396946564885496,0.002315521240234375
178,0.025146484375,-0.0323486328125,0.86376953125,-0.35877862595419846,-3.717557251908397,-0.09923664122137404,0.0023183822631835938
178,0.02099609375,-0.0286865234375,0.860107421875,-0.7099236641221374,-3.9236641221374047,0.0,0.0023353099822998047
179,0.017578125,-0.0396728515625,0.863037109375,-0.7099236641221374,-3.801526717557252,0.09923664122137404,0.002318859100341797
178,0.019775390625,-0.0269775390625,0.864990234375,-0.6106870229007634,-3.885496183206107,-0.1297709923664122,0.0023190975189208984
178,0.018798828125,-0.0250244140625,0.863525390625,-0.7022900763358778,-3.6106870229007635,0.13740458015267176,0.0023190975189208984
178,0.0185546875,-0.0367431640625,0.858154296875,-0.7786259541984732,-3.6412213740458017,0.183206106870229,0.0023186206817626953
178,0.011474609375,-0.0357666015625,0.86474609375,-0.8625954198473282,-3.8396946564885495,0.20610687022900764,0.0023186206817626953
178,0.01806640625,-0.0333251953125,0.867919921875,-0.9618320610687023,-3.595419847328244,0.1297709923664122,0.0023183822631835938
178,0.0205078125,-0.0281982421875,0.861083984375,-0.6793893129770993,-3.8396946564885495,0.0916030534351145,0.0023241043090820312
178,0.017578125,-0.0345458984375,0.859619140625,-0.732824427480916,-3.969465648854962,0.26717557251908397,0.0023169517517089844
178,0.02099609375,-0.0303955078125,0.861572265625,-0.6870229007633588,-3.7480916030534353,0.09923664122137404,0.002317667007446289
178,0.0146484375,-0.0357666015625,0.858642578125,-0.5954198473282443,-3.648854961832061,0.0,0.0023186206817626953
178,0.0185546875,-0.0347900390625,0.8701171875,-0.5954198473282443,-3.8473282442748094,0.030534351145038167,0.002315998077392578
178,0.015380859375,-0.0301513671875,0.871826171875,-0.5648854961832062,-3.564885496183206,0.0916030534351145,0.0023183822631835938
179,0.02001953125,-0.0277099609375,0.85986328125,-0.5343511450381679,-3.83206106870229,0.07633587786259542,0.002317190170288086
179,0.015380859375,-0.0274658203125,0.861083984375,-0.48091603053435117,-3.8473282442748094,0.1450381679389313,0.002317667007446289
178,0.015380859375,-0.0328369140625,0.86572265625,-0.6335877862595419,-3.786259541984733,0.10687022900763359,0.0023174285888671875
178,0.0234375,-0.0350341796875,0.866943359375,-0.6870229007633588,-3.6564885496183206,-0.07633587786259542,0.002318143844604492
178,0.020263671875,-0.0296630859375,0.865478515625,-0.6335877862595419,-3.7480916030534353,0.25190839694656486,0.002317190170288086
178,0.015380859375,-0.0406494140625,0.86181640625,-0.5419847328244275,-3.9160305343511452,-0.03816793893129771,0.0023169517517089844
178,0.01123046875,-0.0335693359375,0.859619140625,-0.6946564885496184,-3.6946564885496183,0.1297709923664122,0.0023193359375
177,0.021484375,-0.0313720703125,0.86328125,-0.7404580152671756,-3.8625954198473282,-0.061068702290076333,0.0024580955505371094
178,0.01416015625,-0.0316162109375,0.869140625,-0.8702290076335878,-3.549618320610687,0.11450381679389313,0.0023381710052490234
178,0.01806640625,-0.0306396484375,0.85888671875,-0.816793893129771,-3.9236641221374047,0.10687022900763359,0.002319812774658203
178,0.015869140625,-0.0355224609375,0.862060546875,-0.5725190839694656,-3.7251908396946565,0.05343511450381679,0.0023190975189208984
178,0.022705078125,-0.0330810546875,0.859375,-1.0916030534351144,-4.0,0.1297709923664122,0.0023190975189208984
178,0.01318359375,-0.0355224609375,0.86181640625,-0.9083969465648855,-3.6106870229007635,-0.03816793893129771,0.002315521240234375
178,0.021484375,-0.0343017578125,0.85791015625,-0.7175572519083969,-3.8091603053435112,-0.04580152671755725,0.002318143844604492
178,0.02001953125,-0.0391845703125,0.862548828125,-0.6946564885496184,-3.954198473282443,0.11450381679389313,0.002317190170288086
178,0.01904296875,-0.0345458984375,0.8603515625,-0.6412213740458015,-3.8396946564885495,0.21374045801526717,0.0023174285888671875
177,0.013427734375,-0.0313720703125,0.86767578125,-0.5038167938931297,-3.9236641221374047,0.0,0.0023169517517089844
178,0.015869140625,-0.0306396484375,0.86474609375,-0.4198473282442748,-3.6793893129770994,-0.08396946564885496,0.0023162364959716797
177,0.022705078125,-0.0294189453125,0.866943359375,-0.48854961832061067,-3.763358778625954,0.06870229007633588,0.002318143844604492
177,0.021728515625,-0.0345458984375,0.866455078125,-0.549618320610687,-3.885496183206107,0.366412213740458,0.0023620128631591797
178,0.01708984375,-0.0338134765625,0.860107421875,-0.6793893129770993,-3.687022900763359,0.04580152671755725,0.0023331642150878906
179,0.020263671875,-0.0264892578125,0.86181640625,-0.4732824427480916,-3.801526717557252,0.007633587786259542,0.0023195743560791016
177,0.0166015625,-0.0296630859375,0.8505859375,-0.5801526717557252,-3.816793893129771,0.11450381679389313,0.0023190975189208984
178,0.019287109375,-0.0316162109375,0.859619140625,-0.5954198473282443,-3.931297709923664,0.0916030534351145,0.0023186206817626953
177,0.017578125,-0.0311279296875,0.866943359375,-0.6641221374045801,-3.648854961832061,0.15267175572519084,0.002317667007446289
178,0.024169921875,-0.0345458984375,0.86279296875,-0.7786259541984732,-3.6030534351145036,0.10687022900763359,0.002318143844604492
177,0.0234375,-0.0335693359375,0.85791015625,-0.7480916030534351,-3.7786259541984735,0.06870229007633588,0.0023179054260253906
178,0.019775390625,-0.0323486328125,0.85693359375,-0.7862595419847328,-3.7709923664122136,0.2366412213740458,0.002317667007446289
177,0.016357421875,-0.0299072265625,0.854736328125,-0.7099236641221374,-3.9236641221374047,0.061068702290076333,0.0023169517517089844
177,0.014404296875,-0.0384521484375,0.86669921875,-0.7938931297709924,-3.801526717557252,0.04580152671755725,0.0023179054260253906
178,0.01123046875,-0.0379638671875,0.85888671875,-0.9389312977099237,-3.50381679389313,0.16030534351145037,0.0023179054260253906
177,0.0146484375,-0.0318603515625,0.8662109375,-0.7862595419847328,-3.7557251908396947,0.030534351145038167,0.0023169517517089844
177,0.015380859375,-0.0333251953125,0.867919921875,-0.8320610687022901,-3.816793893129771,0.09923664122137404,0.002318143844604492
177,0.0205078125,-0.0311279296875,0.861572265625,-0.9083969465648855,-3.8702290076335877,0.03816793893129771,0.002317667007446289
178,0.0224609375,-0.0343017578125,0.86181640625,-0.6412213740458015,-3.687022900763359,0.06870229007633588,0.002317190170288086
177,0.0166015625,-0.0318603515625,0.852783203125,-0.3969465648854962,-3.7404580152671754,0.07633587786259542,0.0023174285888671875
177,0.020751953125,-0.0318603515625,0.868896484375,-0.6412213740458015,-3.595419847328244,-0.030534351145038167,0.0023169517517089844
177,0.023681640625,-0.0333251953125,0.859130859375,-0.549618320610687,-3.8091603053435112,0.13740458015267176,0.002319812774658203
177,0.01806640625,-0.0360107421875,0.8662109375,-0.4732824427480916,-3.6717557251908395,-0.03816793893129771,0.0023174285888671875
177,0.017333984375,-0.0377197265625,0.8671875,-0.549618320610687,-3.786259541984733,0.03816793893129771,0.0023365020751953125
177,0.022216796875,-0.0345458984375,0.8564453125,-0.6106870229007634,-3.6717557251908395,0.061068702290076333,0.002324819564819336
177,0.02294921875,-0.0318603515625,0.858154296875,-0.8625954198473282,-3.7557251908396947,0.022900763358778626,0.0023195743560791016
177,0.02197265625,-0.0301513671875,0.8671875,-0.5954198473282443,-3.6717557251908395,0.10687022900763359,0.0023193359375
177,0.02294921875,-0.0345458984375,0.855224609375,-0.8549618320610687,-3.7709923664122136,0.0,0.002315521240234375
176,0.02099609375,-0.0284423828125,0.8623046875,-0.6793893129770993,-3.7404580152671754,0.13740458015267176,0.0023162364959716797
177,0.025146484375,-0.0316162109375,0.862060546875,-0.8473282442748091,-3.854961832061069,0.06870229007633588,0.002317190170288086
177,0.017822265625,-0.0313720703125,0.869140625,-0.8931297709923665,-3.7786259541984735,0.1297709923664122,0.0023174285888671875
176,0.0205078125,-0.0347900390625,0.856201171875,-0.6564885496183206,-3.648854961832061,0.06870229007633588,0.0023200511932373047
177,0.019775390625,-0.0367431640625,0.866455078125,-0.9312977099236641,-3.763358778625954,0.21374045801526717,0.0023179054260253906
176,0.018798828125,-0.0308837890625,0.853759765625,-0.732824427480916,-3.7709923664122136,-0.08396946564885496,0.002317190170288086
176,0.022216796875,-0.0350341796875,0.85986328125,-0.648854961832061,-3.5343511450381677,-0.061068702290076333,0.0023164749145507812
176,0.024658203125,-0.0374755859375,0.86376953125,-0.732824427480916,-3.801526717557252,0.022900763358778626,0.0023353099822998047
176,0.017578125,-0.0321044921875,0.86767578125,-0.648854961832061,-3.7022900763358777,-0.0916030534351145,0.0023217201232910156
176,0.019287109375,-0.0364990234375,0.862060546875,-0.5419847328244275,-3.885496183206107,0.0,0.0023193359375
176,0.01708984375,-0.0299072265625,0.865966796875,-0.3511450381679389,-3.5572519083969465,0.0916030534351145,0.0023179054260253906
176,0.0205078125,-0.0284423828125,0.86572265625,-0.7709923664122137,-3.6259541984732824,0.022900763358778626,0.0023179054260253906
176,0.015625,-0.0289306640625,0.85302734375,-0.5343511450381679,-3.7404580152671754,0.10687022900763359,0.0023193359375
176,0.020751953125,-0.0291748046875,0.862548828125,-0.7404580152671756,-3.7022900763358777,-0.030534351145038167,0.002317190170288086
176,0.021484375,-0.0352783203125,0.8671875,-0.5419847328244275,-3.8244274809160306,0.030534351145038167,0.0023186206817626953
176,0.0126953125,-0.0345458984375,0.85400390625,-0.5648854961832062,-3.7557251908396947,0.030534351145038167,0.002317667007446289
177,0.022216796875,-0.0313720703125,0.865966796875,-0.5419847328244275,-3.8396946564885495,-0.0916030534351145,0.002317667007446289
176,0.021484375,-0.0303955078125,0.87158203125,-0.7251908396946565,-3.7480916030534353,0.21374045801526717,0.0023183822631835938
176,0.017333984375,-0.0323486328125,0.862060546875,-0.5877862595419847,-3.6946564885496183,-0.061068702290076333,0.0023164749145507812
176,0.01806640625,-0.0350341796875,0.85791015625,-0.8015267175572519,-3.9389312977099236,0.16793893129770993,0.002318859100341797
176,0.0185546875,-0.0277099609375,0.853515625,-0.7251908396946565,-3.7022900763358777,0.22137404580152673,0.0023183822631835938
176,0.013427734375,-0.0335693359375,0.86572265625,-0.9465648854961832,-3.9083969465648853,-0.061068702290076333,0.0023179054260253906
176,0.0234375,-0.0318603515625,0.865478515625,-1.0076335877862594,-3.6106870229007635,0.05343511450381679,0.0023183822631835938
176,0.012939453125,-0.0321044921875,0.85595703125,-0.8091603053435115,-3.9618320610687023,0.3435114503816794,0.0023119449615478516
176,0.01953125,-0.0335693359375,0.862548828125,-0.5954198473282443,-3.8473282442748094,0.022900763358778626,0.0023145675659179688
176,0.0126953125,-0.0328369140625,0.856689453125,-0.8320610687022901,-3.8473282442748094,0.13740458015267176,0.0023131370544433594
175,0.016357421875,-0.0340576171875,0.868408203125,-0.6106870229007634,-3.6412213740458017,0.015267175572519083,0.002314329147338867
175,0.0185546875,-0.0296630859375,0.865478515625,-0.7022900763358778,-3.931297709923664,0.29770992366412213,0.002432107925415039
176,0.01806640625,-0.0360107421875,0.8662109375,-0.5267175572519084,-3.7404580152671754,0.030534351145038167,0.0023336410522460938
175,0.015869140625,-0.0313720703125,0.87060546875,-0.6793893129770993,-3.7557251908396947,-0.022900763358778626,0.002317667007446289
175,0.02001953125,-0.0316162109375,0.865966796875,-0.6030534351145038,-3.732824427480916,-0.15267175572519084,0.0023145675659179688
176,0.013916015625,-0.0352783203125,0.858154296875,-0.6412213740458015,-3.5877862595419847,0.007633587786259542,0.0023200511932373047
176,0.016845703125,-0.0338134765625,0.867431640625,-0.6030534351145038,-3.854961832061069,0.183206106870229,0.002318859100341797
175,0.016357421875,-0.0352783203125,0.863525390625,-0.7251908396946565,-3.7022900763358777,-0.0916030534351145,0.002318143844604492
175,0.0244140625,-0.0264892578125,0.864013671875,-0.8625954198473282,-3.969465648854962,0.1450381679389313,0.0023179054260253906
175,0.01318359375,-0.0355224609375,0.867919921875,-0.8244274809160306,-3.5877862595419847,0.13740458015267176,0.0023179054260253906
175,0.01513671875,-0.0323486328125,0.85498046875,-0.7022900763358778,-3.7938931297709924,0.16030534351145037,0.0023190975189208984
176,0.022705078125,-0.0345458984375,0.85888671875,-0.8396946564885496,-3.786259541984733,-0.19083969465648856,0.0023164749145507812
176,0.017333984375,-0.0311279296875,0.86279296875,-0.9236641221374046,-3.732824427480916,0.3435114503816794,0.002318143844604492
175,0.011962890625,-0.0352783203125,0.864501953125,-0.8549618320610687,-4.083969465648855,0.15267175572519084,0.0023169517517089844
175,0.015869140625,-0.0396728515625,0.859375,-0.7633587786259542,-3.6717557251908395,-0.17557251908396945,0.0026171207427978516
175,0.0146484375,-0.0323486328125,0.861328125,-0.648854961832061,-3.8244274809160306,0.12213740458015267,0.002323150634765625
175,0.020751953125,-0.0316162109375,0.86962890625,-0.7633587786259542,-3.7786259541984735,-0.0916030534351145,0.002317667007446289
175,0.015380859375,-0.0291748046875,0.87451171875,-0.5572519083969466,-3.8396946564885495,0.0916030534351145,0.0023174285888671875
175,0.0185546875,-0.0340576171875,0.85791015625,-0.4351145038167939,-3.83206106870229,0.1450381679389313,0.0023343563079833984
176,0.01904296875,-0.0352783203125,0.857421875,-0.4351145038167939,-3.763358778625954,-0.08396946564885496,0.0023195743560791016
178,0.01904296875,-0.0350341796875,0.853759765625,-0.48091603053435117,-3.763358778625954,-0.0916030534351145,0.0023190975189208984
176,0.01806640625,-0.0357666015625,0.861328125,-0.5572519083969466,-3.66412213740458,0.007633587786259542,0.002317190170288086
176,0.023193359375,-0.0330810546875,0.871337890625,-0.7022900763358778,-3.8625954198473282,0.1984732824427481,0.002317667007446289
175,0.01513671875,-0.0335693359375,0.874755859375,-0.6946564885496184,-3.8396946564885495,0.3053435114503817,0.002316713333129883
176,0.013427734375,-0.0301513671875,0.8681640625,-0.4351145038167939,-3.717557251908397,0.183206106870229,0.002317667007446289
175,0.0205078125,-0.0321044921875,0.85693359375,-0.6412213740458015,-3.5419847328244276,-0.16030534351145037,0.0023162364959716797
175,0.020751953125,-0.0335693359375,0.86083984375,-0.46564885496183206,-3.7480916030534353,0.09923664122137404,0.002318143844604492
175,0.015380859375,-0.0311279296875,0.8544921875,-0.6793893129770993,-3.717557251908397,0.11450381679389313,0.002321958541870117
175,0.01171875,-0.0296630859375,0.868408203125,-0.7786259541984732,-3.5419847328244276,0.007633587786259542,0.0023162364959716797
175,0.017333984375,-0.0296630859375,0.861083984375,-0.8931297709923665,-3.763358778625954,0.10687022900763359,0.002317667007446289
175,0.01708984375,-0.0308837890625,0.859130859375,-0.9312977099236641,-3.8244274809160306,-0.030534351145038167,0.002317190170288086
175,0.019775390625,-0.0264892578125,0.8701171875,-0.8625954198473282,-3.687022900763359,0.22137404580152673,0.0023174285888671875
175,0.021728515625,-0.0374755859375,0.859619140625,-0.9083969465648855,-3.786259541984733,-0.022900763358778626,0.002317190170288086
178,0.01953125,-0.0291748046875,0.86572265625,-0.7251908396946565,-3.7480916030534353,-0.015267175572519083,0.0023169517517089844
175,0.01953125,-0.0328369140625,0.857421875,-0.7022900763358778,-4.068702290076335,0.19083969465648856,0.0023183822631835938
175,0.02001953125,-0.0338134765625,0.864013671875,-0.7480916030534351,-3.732824427480916,-0.19083969465648856,0.0023164749145507812
175,0.014892578125,-0.0281982421875,0.874755859375,-0.6564885496183206,-3.83206106870229,0.2366412213740458,0.0023179054260253906
176,0.01806640625,-0.0350341796875,0.8623046875,-0.6412213740458015,-3.7099236641221376,0.05343511450381679,0.0023169517517089844
175,0.017333984375,-0.0357666015625,0.86572265625,-0.7175572519083969,-3.6106870229007635,0.1984732824427481,0.002316713333129883
175,0.019775390625,-0.0306396484375,0.868408203125,-0.5801526717557252,-3.687022900763359,0.061068702290076333,0.0023186206817626953
